 # Tag              Time [sec]                Mass [g]             posx [code]             posy [code]             velx [code]             vely [code]             accx [code]             accy [code]
     2      0.315360000000E+06      0.397800000000E+34      0.149598000000E+14     -0.313142533688E+12     -0.207850813232E+05     -0.992968460453E+06      0.659090605124E-01      0.000000000000E+00
     2      0.946080000000E+06      0.397800000000E+34      0.149401399560E+14     -0.939290484718E+12     -0.623051978025E+05     -0.991664652410E+06      0.659090605124E-01      0.000000000000E+00
     2      0.157680000000E+07      0.397800000000E+34      0.148943095499E+14     -0.156434246580E+13     -0.103698045253E+06     -0.988627195944E+06      0.659090605124E-01      0.000000000000E+00
     2      0.220752000000E+07      0.397800000000E+34      0.148224004930E+14     -0.218720623297E+13     -0.144891128922E+06     -0.983864487239E+06      0.659090605124E-01      0.000000000000E+00
     2      0.283824000000E+07      0.397800000000E+34      0.147245501786E+14     -0.280679532312E+13     -0.185812252520E+06     -0.977388003374E+06      0.659090605124E-01      0.000000000000E+00
     2      0.346896000000E+07      0.397800000000E+34      0.146009414723E+14     -0.342203099929E+13     -0.226389657726E+06     -0.969212314256E+06      0.659090605124E-01      0.000000000000E+00
     2      0.409968000000E+07      0.397800000000E+34      0.144518024132E+14     -0.403184420243E+13     -0.266552167349E+06     -0.959355087228E+06      0.659090605124E-01      0.000000000000E+00
     2      0.473040000000E+07      0.397800000000E+34      0.142774058243E+14     -0.463517750483E+13     -0.306229331677E+06     -0.947837083843E+06      0.659090605124E-01      0.000000000000E+00
     2      0.536112000000E+07      0.397800000000E+34      0.140780688304E+14     -0.523098706020E+13     -0.345351577490E+06     -0.934682148383E+06      0.659090605124E-01      0.000000000000E+00
     2      0.599184000000E+07      0.397800000000E+34      0.138541522816E+14     -0.581824454519E+13     -0.383850359168E+06     -0.919917187686E+06      0.659090605124E-01      0.000000000000E+00
     2      0.662256000000E+07      0.397800000000E+34      0.136060600807E+14     -0.639593908677E+13     -0.421658311266E+06     -0.903572141947E+06      0.659090605124E-01      0.000000000000E+00
     2      0.725328000000E+07      0.397800000000E+34      0.133342384155E+14     -0.696307916972E+13     -0.458709401891E+06     -0.885679946146E+06      0.659090605124E-01      0.000000000000E+00
     2      0.788400000000E+07      0.397800000000E+34      0.130391748925E+14     -0.751869451826E+13     -0.494939086183E+06     -0.866276481874E+06      0.659090605124E-01      0.000000000000E+00
     2      0.851472000000E+07      0.397800000000E+34      0.127213975758E+14     -0.806183794584E+13     -0.530284459136E+06     -0.845400519341E+06      0.659090605124E-01      0.000000000000E+00
     2      0.914544000000E+07      0.397800000000E+34      0.123814739281E+14     -0.859158716667E+13     -0.564684407007E+06     -0.823093649450E+06      0.659090605124E-01      0.000000000000E+00
     2      0.977616000000E+07      0.397800000000E+34      0.120200096578E+14     -0.910704656293E+13     -0.598079756510E+06     -0.799400205854E+06      0.659090605124E-01      0.000000000000E+00
     2      0.104068800000E+08      0.397800000000E+34      0.116376474717E+14     -0.960734890121E+13     -0.630413420970E+06     -0.774367177037E+06      0.659090605124E-01      0.000000000000E+00
     2      0.110376000000E+08      0.397800000000E+34      0.112350657363E+14     -0.100916569919E+14     -0.661630542634E+06     -0.748044108477E+06      0.659090605124E-01      0.000000000000E+00
     2      0.116683200000E+08      0.397800000000E+34      0.108129770504E+14     -0.105591652854E+14     -0.691678630291E+06     -0.720482995069E+06      0.659090605124E-01      0.000000000000E+00
     2      0.122990400000E+08      0.397800000000E+34      0.103721267309E+14     -0.110091013987E+14     -0.720507691405E+06     -0.691738164059E+06      0.659090605124E-01      0.000000000000E+00
     2      0.129297600000E+08      0.397800000000E+34      0.991329121695E+13     -0.114407275675E+14     -0.748070357931E+06     -0.661866148785E+06      0.659090605124E-01      0.000000000000E+00
     2      0.135604800000E+08      0.397800000000E+34      0.943727639591E+13     -0.118533420159E+14     -0.774322005052E+06     -0.630925553653E+06      0.659090605124E-01      0.000000000000E+00
     2      0.141912000000E+08      0.397800000000E+34      0.894491585488E+13     -0.122462802408E+14     -0.799220862067E+06     -0.598976910799E+06      0.659090605124E-01      0.000000000000E+00
     2      0.148219200000E+08      0.397800000000E+34      0.843706906433E+13     -0.126189162042E+14     -0.822728114733E+06     -0.566082529002E+06      0.659090605124E-01      0.000000000000E+00
     2      0.154526400000E+08      0.397800000000E+34      0.791461949825E+13     -0.129706634292E+14     -0.844807998374E+06     -0.532306335456E+06      0.659090605124E-01      0.000000000000E+00
     2      0.160833600000E+08      0.397800000000E+34      0.737847269724E+13     -0.133009759947E+14     -0.865427881159E+06     -0.497713711090E+06      0.659090605124E-01      0.000000000000E+00
     2      0.167140800000E+08      0.397800000000E+34      0.682955428061E+13     -0.136093494259E+14     -0.884558336992E+06     -0.462371320172E+06      0.659090605124E-01      0.000000000000E+00
     2      0.173448000000E+08      0.397800000000E+34      0.626880791428E+13     -0.138953214762E+14     -0.902173207518E+06     -0.426346935004E+06      0.659090605124E-01      0.000000000000E+00
     2      0.179755200000E+08      0.397800000000E+34      0.569719324128E+13     -0.141584727979E+14     -0.918249652854E+06     -0.389709256539E+06      0.659090605124E-01      0.000000000000E+00
     2      0.186062400000E+08      0.397800000000E+34      0.511568378210E+13     -0.143984274994E+14     -0.932768190682E+06     -0.352527731806E+06      0.659090605124E-01      0.000000000000E+00
     2      0.192369600000E+08      0.397800000000E+34      0.452526481223E+13     -0.146148535863E+14     -0.945712723482E+06     -0.314872369060E+06      0.659090605124E-01      0.000000000000E+00
     2      0.198676800000E+08      0.397800000000E+34      0.392693122446E+13     -0.148074632865E+14     -0.957070553704E+06     -0.276813551584E+06      0.659090605124E-01      0.000000000000E+00
     2      0.204984000000E+08      0.397800000000E+34      0.332168538345E+13     -0.149760132570E+14     -0.966832386821E+06     -0.238421851084E+06      0.659090605124E-01      0.000000000000E+00
     2      0.211291200000E+08      0.397800000000E+34      0.271053498036E+13     -0.151203046735E+14     -0.974992322260E+06     -0.199767841652E+06      0.659090605124E-01      0.000000000000E+00
     2      0.217598400000E+08      0.397800000000E+34      0.209449089506E+13     -0.152401832027E+14     -0.981547832294E+06     -0.160921915210E+06      0.659090605124E-01      0.000000000000E+00
     2      0.223905600000E+08      0.397800000000E+34      0.147456507355E+13     -0.153355388585E+14     -0.986499729091E+06     -0.121954099393E+06      0.659090605124E-01      0.000000000000E+00
     2      0.230212800000E+08      0.397800000000E+34      0.851768427971E+12     -0.154063057441E+14     -0.989852120165E+06     -0.829338787611E+05      0.659090605124E-01      0.000000000000E+00
     2      0.236520000000E+08      0.397800000000E+34      0.227108766565E+12     -0.154524616817E+14     -0.991612352582E+06     -0.439300202359E+05      0.659090605124E-01      0.000000000000E+00
     2      0.242827200000E+08      0.397800000000E+34     -0.398411239522E+12     -0.154740277325E+14     -0.991790946336E+06     -0.501040357811E+04      0.659090605124E-01      0.000000000000E+00
     2      0.249134400000E+08      0.397800000000E+34     -0.102379604571E+13     -0.154710676118E+14     -0.990401517380E+06      0.337581422856E+05      0.659090605124E-01      0.000000000000E+00
     2      0.255441600000E+08      0.397800000000E+34     -0.164805917338E+13     -0.154436870008E+14     -0.987460690883E+06      0.723099963577E+05      0.659090605124E-01      0.000000000000E+00
     2      0.261748800000E+08      0.397800000000E+34     -0.227022509305E+13     -0.153920327606E+14     -0.982988005310E+06      0.110580895406E+06      0.659090605124E-01      0.000000000000E+00
     2      0.268056000000E+08      0.397800000000E+34     -0.288933104572E+13     -0.153162920537E+14     -0.977005807999E+06      0.148508075926E+06      0.659090605124E-01      0.000000000000E+00
     2      0.274363200000E+08      0.397800000000E+34     -0.350442879709E+13     -0.152166913759E+14     -0.969539142960E+06      0.186030407687E+06      0.659090605124E-01      0.000000000000E+00
     2      0.280670400000E+08      0.397800000000E+34     -0.411458631986E+13     -0.150934955071E+14     -0.960615631614E+06      0.223088518385E+06      0.659090605124E-01      0.000000000000E+00
     2      0.286977600000E+08      0.397800000000E+34     -0.471888939975E+13     -0.149470063833E+14     -0.950265347289E+06      0.259624909006E+06      0.659090605124E-01      0.000000000000E+00
     2      0.293284800000E+08      0.397800000000E+34     -0.531644316162E+13     -0.147775618979E+14     -0.938520684237E+06      0.295584059571E+06      0.659090605124E-01      0.000000000000E+00
     2      0.299592000000E+08      0.397800000000E+34     -0.590637351197E+13     -0.145855346387E+14     -0.925416222012E+06      0.330912525019E+06      0.659090605124E-01      0.000000000000E+00
     2      0.305899200000E+08      0.397800000000E+34     -0.648782849552E+13     -0.143713305647E+14     -0.910988586003E+06      0.365559021057E+06      0.659090605124E-01      0.000000000000E+00
     2      0.312206400000E+08      0.397800000000E+34     -0.705997956311E+13     -0.141353876310E+14     -0.895276304964E+06      0.399474499870E+06      0.659090605124E-01      0.000000000000E+00
     2      0.318513600000E+08      0.397800000000E+34     -0.762202274950E+13     -0.138781743675E+14     -0.878319666321E+06      0.432612215678E+06      0.659090605124E-01      0.000000000000E+00
     2      0.324820800000E+08      0.397800000000E+34     -0.817317975957E+13     -0.136001884179E+14     -0.860160570066E+06      0.464927780170E+06      0.659090605124E-01      0.000000000000E+00
     2      0.331128000000E+08      0.397800000000E+34     -0.871269896230E+13     -0.133019550454E+14     -0.840842381995E+06      0.496379207937E+06      0.659090605124E-01      0.000000000000E+00
     2      0.337435200000E+08      0.397800000000E+34     -0.923985629209E+13     -0.129840256107E+14     -0.820409787037E+06      0.526926952065E+06      0.659090605124E-01      0.000000000000E+00
     2      0.343742400000E+08      0.397800000000E+34     -0.975395605776E+13     -0.126469760298E+14     -0.798908643373E+06      0.556533930123E+06      0.659090605124E-01      0.000000000000E+00
     2      0.350049600000E+08      0.397800000000E+34     -0.102543316597E+14     -0.122914052167E+14     -0.776385838020E+06      0.585165540833E+06      0.659090605124E-01      0.000000000000E+00
     2      0.356356800000E+08      0.397800000000E+34     -0.107403462161E+14     -0.119179335167E+14     -0.752889144507E+06      0.612789671736E+06      0.659090605124E-01      0.000000000000E+00
     2      0.362664000000E+08      0.397800000000E+34     -0.112113931004E+14     -0.115272011366E+14     -0.728467083221E+06      0.639376698244E+06      0.659090605124E-01      0.000000000000E+00
     2      0.368971200000E+08      0.397800000000E+34     -0.116668963900E+14     -0.111198665768E+14     -0.703168784968E+06      0.664899474472E+06      0.659090605124E-01      0.000000000000E+00
     2      0.375278400000E+08      0.397800000000E+34     -0.121063112307E+14     -0.106966050699E+14     -0.677043858222E+06      0.689333316305E+06      0.659090605124E-01      0.000000000000E+00
     2      0.381585600000E+08      0.397800000000E+34     -0.125291241175E+14     -0.102581070320E+14     -0.650142260517E+06      0.712655977144E+06      0.659090605124E-01      0.000000000000E+00
     2      0.387892800000E+08      0.397800000000E+34     -0.129348530948E+14     -0.980507652978E+13     -0.622514174355E+06      0.734847616840E+06      0.659090605124E-01      0.000000000000E+00
     2      0.394200000000E+08      0.397800000000E+34     -0.133230478793E+14     -0.933822976830E+13     -0.594209887968E+06      0.755890764305E+06      0.659090605124E-01      0.000000000000E+00
     2      0.400507200000E+08      0.397800000000E+34     -0.136932899087E+14     -0.885829360344E+13     -0.565279681224E+06      0.775770274306E+06      0.659090605124E-01      0.000000000000E+00
     2      0.406814400000E+08      0.397800000000E+34     -0.140451923188E+14     -0.836600408239E+13     -0.535773716915E+06      0.794473278973E+06      0.659090605124E-01      0.000000000000E+00
     2      0.413121600000E+08      0.397800000000E+34     -0.143783998534E+14     -0.786210501548E+13     -0.505741937607E+06      0.811989134523E+06      0.659090605124E-01      0.000000000000E+00
     2      0.419428800000E+08      0.397800000000E+34     -0.146925887097E+14     -0.734734658231E+13     -0.475233968206E+06      0.828309363722E+06      0.659090605124E-01      0.000000000000E+00
     2      0.425736000000E+08      0.397800000000E+34     -0.149874663232E+14     -0.682248397479E+13     -0.444299024331E+06      0.843427594594E+06      0.659090605124E-01      0.000000000000E+00
     2      0.432043200000E+08      0.397800000000E+34     -0.152627710961E+14     -0.628827607942E+13     -0.412985826560E+06      0.857339495862E+06      0.659090605124E-01      0.000000000000E+00
     2      0.438350400000E+08      0.397800000000E+34     -0.155182720718E+14     -0.574548420062E+13     -0.381342520561E+06      0.870042709607E+06      0.659090605124E-01      0.000000000000E+00
     2      0.444657600000E+08      0.397800000000E+34     -0.157537685607E+14     -0.519487082706E+13     -0.349416603094E+06      0.881536781627E+06      0.659090605124E-01      0.000000000000E+00
     2      0.450964800000E+08      0.397800000000E+34     -0.159690897198E+14     -0.463719844212E+13     -0.317254853834E+06      0.891823089911E+06      0.659090605124E-01      0.000000000000E+00
     2      0.457272000000E+08      0.397800000000E+34     -0.161640940905E+14     -0.407322837976E+13     -0.284903272937E+06      0.900904771688E+06      0.659090605124E-01      0.000000000000E+00
     2      0.463579200000E+08      0.397800000000E+34     -0.163386690977E+14     -0.350371972657E+13     -0.252407024236E+06      0.908786649433E+06      0.659090605124E-01      0.000000000000E+00
     2      0.469886400000E+08      0.397800000000E+34     -0.164927305139E+14     -0.292942827060E+13     -0.219810383934E+06      0.915475156219E+06      0.659090605124E-01      0.000000000000E+00
     2      0.476193600000E+08      0.397800000000E+34     -0.166262218920E+14     -0.235110549732E+13     -0.187156694655E+06      0.920978260780E+06      0.659090605124E-01      0.000000000000E+00
     2      0.482500800000E+08      0.397800000000E+34     -0.167391139698E+14     -0.176949763290E+13     -0.154488324654E+06      0.925305392597E+06      0.659090605124E-01      0.000000000000E+00
     2      0.488808000000E+08      0.397800000000E+34     -0.168314040498E+14     -0.118534473462E+13     -0.121846632023E+06      0.928467367339E+06      0.659090605124E-01      0.000000000000E+00
     2      0.495115200000E+08      0.397800000000E+34     -0.169031153566E+14     -0.599379828321E+12     -0.892719336804E+05      0.930476312924E+06      0.659090605124E-01      0.000000000000E+00
     2      0.501422400000E+08      0.397800000000E+34     -0.169542963763E+14     -0.123280922355E+11     -0.568034789269E+05      0.931345596460E+06      0.659090605124E-01      0.000000000000E+00
     2      0.507729600000E+08      0.397800000000E+34     -0.169850201792E+14      0.575093913152E+12     -0.244794273586E+05      0.931089752303E+06      0.659090605124E-01      0.000000000000E+00
     2      0.514036800000E+08      0.397800000000E+34     -0.169953837295E+14      0.116217897014E+13      0.766316909932E+04      0.929724411440E+06      0.659090605124E-01      0.000000000000E+00
     2      0.520344000000E+08      0.397800000000E+34     -0.169855071846E+14      0.174822988452E+13      0.395883802631E+05      0.927266232372E+06      0.659090605124E-01      0.000000000000E+00
     2      0.526651200000E+08      0.397800000000E+34     -0.169555331854E+14      0.233256012293E+13      0.712614081021E+05      0.923732833678E+06      0.659090605124E-01      0.000000000000E+00
     2      0.532958400000E+08      0.397800000000E+34     -0.169056261414E+14      0.291449440801E+13      0.102648593723E+06      0.919142728375E+06      0.659090605124E-01      0.000000000000E+00
     2      0.539265600000E+08      0.397800000000E+34     -0.168359715112E+14      0.349336927235E+13      0.133717421158E+06      0.913515260222E+06      0.659090605124E-01      0.000000000000E+00
     2      0.545572800000E+08      0.397800000000E+34     -0.167467750815E+14      0.406853357273E+13      0.164436518195E+06      0.906870542042E+06      0.659090605124E-01      0.000000000000E+00
     2      0.551880000000E+08      0.397800000000E+34     -0.166382622459E+14      0.463934896566E+13      0.194775654461E+06      0.899229396163E+06      0.659090605124E-01      0.000000000000E+00
     2      0.558187200000E+08      0.397800000000E+34     -0.165106772853E+14      0.520519034574E+13      0.224705736999E+06      0.890613297030E+06      0.659090605124E-01      0.000000000000E+00
     2      0.564494400000E+08      0.397800000000E+34     -0.163642826517E+14      0.576544624820E+13      0.254198803535E+06      0.881044316045E+06      0.659090605124E-01      0.000000000000E+00
     2      0.570801600000E+08      0.397800000000E+34     -0.161993582559E+14      0.631951921698E+13      0.283228013663E+06      0.870545068659E+06      0.659090605124E-01      0.000000000000E+00
     2      0.577108800000E+08      0.397800000000E+34     -0.160162007622E+14      0.686682613977E+13      0.311767638140E+06      0.859138663743E+06      0.659090605124E-01      0.000000000000E+00
     2      0.583416000000E+08      0.397800000000E+34     -0.158151228886E+14      0.740679855155E+13      0.339793046480E+06      0.846848655242E+06      0.659090605124E-01      0.000000000000E+00
     2      0.589723200000E+08      0.397800000000E+34     -0.155964527168E+14      0.793888290792E+13      0.367280693050E+06      0.833698996102E+06      0.659090605124E-01      0.000000000000E+00
     2      0.596030400000E+08      0.397800000000E+34     -0.153605330097E+14      0.846254082976E+13      0.394208101833E+06      0.819713994465E+06      0.659090605124E-01      0.000000000000E+00
     2      0.602337600000E+08      0.397800000000E+34     -0.151077205397E+14      0.897724932064E+13      0.420553850030E+06      0.804918272097E+06      0.659090605124E-01      0.000000000000E+00
     2      0.608644800000E+08      0.397800000000E+34     -0.148383854267E+14      0.948250095833E+13      0.446297550664E+06      0.789336725022E+06      0.659090605124E-01      0.000000000000E+00
     2      0.614952000000E+08      0.397800000000E+34     -0.145529104882E+14      0.997780406181E+13      0.471419834339E+06      0.772994486316E+06      0.659090605124E-01      0.000000000000E+00
     2      0.621259200000E+08      0.397800000000E+34     -0.142516906000E+14      0.104626828352E+14      0.495902330289E+06      0.755916891021E+06      0.659090605124E-01      0.000000000000E+00
     2      0.627566400000E+08      0.397800000000E+34     -0.139351320694E+14      0.109366774898E+14      0.519727646860E+06      0.738129443117E+06      0.659090605124E-01      0.000000000000E+00
     2      0.633873600000E+08      0.397800000000E+34     -0.136036520212E+14      0.113993443458E+14      0.542879351548E+06      0.719657784505E+06      0.659090605124E-01      0.000000000000E+00
     2      0.640180800000E+08      0.397800000000E+34     -0.132576777954E+14      0.118502559144E+14      0.565341950705E+06      0.700527665925E+06      0.659090605124E-01      0.000000000000E+00
     2      0.646488000000E+08      0.397800000000E+34     -0.128976463587E+14      0.122890009623E+14      0.587100869028E+06      0.680764919761E+06      0.659090605124E-01      0.000000000000E+00
     2      0.652795200000E+08      0.397800000000E+34     -0.125240037285E+14      0.127151845589E+14      0.608142428925E+06      0.660395434646E+06      0.659090605124E-01      0.000000000000E+00
     2      0.659102400000E+08      0.397800000000E+34     -0.121372044095E+14      0.131284281084E+14      0.628453829860E+06      0.639445131809E+06      0.659090605124E-01      0.000000000000E+00
     2      0.665409600000E+08      0.397800000000E+34     -0.117377108443E+14      0.135283693664E+14      0.648023127749E+06      0.617939943091E+06      0.659090605124E-01      0.000000000000E+00
     2      0.671716800000E+08      0.397800000000E+34     -0.113259928762E+14      0.139146624432E+14      0.666839214500E+06      0.595905790551E+06      0.659090605124E-01      0.000000000000E+00
     2      0.678024000000E+08      0.397800000000E+34     -0.109025272252E+14      0.142869777953E+14      0.684891797751E+06      0.573368567592E+06      0.659090605124E-01      0.000000000000E+00
     2      0.684331200000E+08      0.397800000000E+34     -0.104677969766E+14      0.146450022038E+14      0.702171380886E+06      0.550354121528E+06      0.659090605124E-01      0.000000000000E+00
     2      0.690638400000E+08      0.397800000000E+34     -0.100222910824E+14      0.149884387431E+14      0.718669243373E+06      0.526888237525E+06      0.659090605124E-01      0.000000000000E+00
     2      0.696945600000E+08      0.397800000000E+34     -0.956650387454E+13      0.153170067392E+14      0.734377421495E+06      0.502996623831E+06      0.659090605124E-01      0.000000000000E+00
     2      0.703252800000E+08      0.397800000000E+34     -0.910093459083E+13      0.156304417192E+14      0.749288689488E+06      0.478704898236E+06      0.659090605124E-01      0.000000000000E+00
     2      0.709560000000E+08      0.397800000000E+34     -0.862608691235E+13      0.159284953520E+14      0.763396541168E+06      0.454038575671E+06      0.659090605124E-01      0.000000000000E+00
     2      0.715867200000E+08      0.397800000000E+34     -0.814246851239E+13      0.162109353816E+14      0.776695172043E+06      0.429023056886E+06      0.659090605124E-01      0.000000000000E+00
     2      0.722174400000E+08      0.397800000000E+34     -0.765059061669E+13      0.164775455537E+14      0.789179461973E+06      0.403683618136E+06      0.659090605124E-01      0.000000000000E+00
     2      0.728481600000E+08      0.397800000000E+34     -0.715096757444E+13      0.167281255353E+14      0.800844958380E+06      0.378045401802E+06      0.659090605124E-01      0.000000000000E+00
     2      0.734788800000E+08      0.397800000000E+34     -0.664411643984E+13      0.169624908293E+14      0.811687860047E+06      0.352133407870E+06      0.659090605124E-01      0.000000000000E+00
     2      0.741096000000E+08      0.397800000000E+34     -0.613055656373E+13      0.171804726831E+14      0.821705001518E+06      0.325972486229E+06      0.659090605124E-01      0.000000000000E+00
     2      0.747403200000E+08      0.397800000000E+34     -0.561080919500E+13      0.173819179927E+14      0.830893838106E+06      0.299587329685E+06      0.659090605124E-01      0.000000000000E+00
     2      0.753710400000E+08      0.397800000000E+34     -0.508539709138E+13      0.175666892032E+14      0.839252431539E+06      0.273002467665E+06      0.659090605124E-01      0.000000000000E+00
     2      0.760017600000E+08      0.397800000000E+34     -0.455484413910E+13      0.177346642043E+14      0.846779436231E+06      0.246242260518E+06      0.659090605124E-01      0.000000000000E+00
     2      0.766324800000E+08      0.397800000000E+34     -0.401967498118E+13      0.178857362228E+14      0.853474086198E+06      0.219330894376E+06      0.659090605124E-01      0.000000000000E+00
     2      0.772632000000E+08      0.397800000000E+34     -0.348041465388E+13      0.180198137124E+14      0.859336182612E+06      0.192292376510E+06      0.659090605124E-01      0.000000000000E+00
     2      0.778939200000E+08      0.397800000000E+34     -0.293758823081E+13      0.181368202398E+14      0.864366081995E+06      0.165150531114E+06      0.659090605124E-01      0.000000000000E+00
     2      0.785246400000E+08      0.397800000000E+34     -0.239172047451E+13      0.182366943689E+14      0.868564685060E+06      0.137928995481E+06      0.659090605124E-01      0.000000000000E+00
     2      0.791553600000E+08      0.397800000000E+34     -0.184333549485E+13      0.183193895420E+14      0.871933426168E+06      0.110651216508E+06      0.659090605124E-01      0.000000000000E+00
     2      0.797860800000E+08      0.397800000000E+34     -0.129295641407E+13      0.183848739598E+14      0.874474263429E+06      0.833404474758E+05      0.659090605124E-01      0.000000000000E+00
     2      0.804168000000E+08      0.397800000000E+34     -0.741105037921E+12      0.184331304581E+14      0.876189669402E+06      0.560197450702E+05      0.659090605124E-01      0.000000000000E+00
     2      0.810475200000E+08      0.397800000000E+34     -0.188301532571E+12      0.184641563837E+14      0.877082622413E+06      0.287119665760E+05      0.659090605124E-01      0.000000000000E+00
     2      0.816782400000E+08      0.397800000000E+34      0.364935893076E+12      0.184779634683E+14      0.877156598455E+06      0.143976721757E+04      0.659090605124E-01      0.000000000000E+00
     2      0.823089600000E+08      0.397800000000E+34      0.918091300065E+12      0.184745777005E+14      0.876415563668E+06     -0.257744024086E+05      0.659090605124E-01      0.000000000000E+00
     2      0.829396800000E+08      0.397800000000E+34      0.147065132742E+13      0.184540391964E+14      0.874863967384E+06     -0.529082988480E+05      0.659090605124E-01      0.000000000000E+00
     2      0.835704000000E+08      0.397800000000E+34      0.202210549587E+13      0.184164020685E+14      0.872506735707E+06     -0.799398882887E+05      0.659090605124E-01      0.000000000000E+00
     2      0.842011200000E+08      0.397800000000E+34      0.257194650760E+13      0.183617342931E+14      0.869349265625E+06     -0.106847349089E+06      0.659090605124E-01      0.000000000000E+00
     2      0.848318400000E+08      0.397800000000E+34      0.311967054240E+13      0.182901175762E+14      0.865397419619E+06     -0.133609074367E+06      0.659090605124E-01      0.000000000000E+00
     2      0.854625600000E+08      0.397800000000E+34      0.366477755043E+13      0.182016472173E+14      0.860657520756E+06     -0.160203674691E+06      0.659090605124E-01      0.000000000000E+00
     2      0.860932800000E+08      0.397800000000E+34      0.420677154205E+13      0.180964319721E+14      0.855136348245E+06     -0.186609980897E+06      0.659090605124E-01      0.000000000000E+00
     2      0.867240000000E+08      0.397800000000E+34      0.474516087482E+13      0.179745939133E+14      0.848841133424E+06     -0.212807047079E+06      0.659090605124E-01      0.000000000000E+00
     2      0.873547200000E+08      0.397800000000E+34      0.527945853813E+13      0.178362682886E+14      0.841779556157E+06     -0.238774153769E+06      0.659090605124E-01      0.000000000000E+00
     2      0.879854400000E+08      0.397800000000E+34      0.580918243554E+13      0.176816033781E+14      0.833959741615E+06     -0.264490811343E+06      0.659090605124E-01      0.000000000000E+00
     2      0.886161600000E+08      0.397800000000E+34      0.633385566518E+13      0.175107603482E+14      0.825390257420E+06     -0.289936763682E+06      0.659090605124E-01      0.000000000000E+00
     2      0.892468800000E+08      0.397800000000E+34      0.685300679843E+13      0.173239131043E+14      0.816080111105E+06     -0.315091992113E+06      0.659090605124E-01      0.000000000000E+00
     2      0.898776000000E+08      0.397800000000E+34      0.736617015699E+13      0.171212481397E+14      0.806038747886E+06     -0.339936719647E+06      0.659090605124E-01      0.000000000000E+00
     2      0.905083200000E+08      0.397800000000E+34      0.787288608861E+13      0.169029643829E+14      0.795276048694E+06     -0.364451415555E+06      0.659090605124E-01      0.000000000000E+00
     2      0.911390400000E+08      0.397800000000E+34      0.837270124164E+13      0.166692730415E+14      0.783802328447E+06     -0.388616800283E+06      0.659090605124E-01      0.000000000000E+00
     2      0.917697600000E+08      0.397800000000E+34      0.886516883852E+13      0.164203974428E+14      0.771628334533E+06     -0.412413850742E+06      0.659090605124E-01      0.000000000000E+00
     2      0.924004800000E+08      0.397800000000E+34      0.934984894829E+13      0.161565728713E+14      0.758765245456E+06     -0.435823805983E+06      0.659090605124E-01      0.000000000000E+00
     2      0.930312000000E+08      0.397800000000E+34      0.982630875835E+13      0.158780464024E+14      0.745224669631E+06     -0.458828173279E+06      0.659090605124E-01      0.000000000000E+00
     2      0.936619200000E+08      0.397800000000E+34      0.102941228454E+14      0.155850767320E+14      0.731018644273E+06     -0.481408734621E+06      0.659090605124E-01      0.000000000000E+00
     2      0.942926400000E+08      0.397800000000E+34      0.107528734457E+14      0.152779340024E+14      0.716159634364E+06     -0.503547553654E+06      0.659090605124E-01      0.000000000000E+00
     2      0.949233600000E+08      0.397800000000E+34      0.112021507249E+14      0.149568996236E+14      0.700660531645E+06     -0.525226983054E+06      0.659090605124E-01      0.000000000000E+00
     2      0.955540800000E+08      0.397800000000E+34      0.116415530467E+14      0.146222660894E+14      0.684534653607E+06     -0.546429672358E+06      0.659090605124E-01      0.000000000000E+00
     2      0.961848000000E+08      0.397800000000E+34      0.120706872416E+14      0.142743367894E+14      0.667795742438E+06     -0.567138576266E+06      0.659090605124E-01      0.000000000000E+00
     2      0.968155200000E+08      0.397800000000E+34      0.124891688743E+14      0.139134258145E+14      0.650457963886E+06     -0.587336963397E+06      0.659090605124E-01      0.000000000000E+00
     2      0.974462400000E+08      0.397800000000E+34      0.128966225108E+14      0.135398577580E+14      0.632535906006E+06     -0.607008425535E+06      0.659090605124E-01      0.000000000000E+00
     2      0.980769600000E+08      0.397800000000E+34      0.132926819844E+14      0.131539675103E+14      0.614044577743E+06     -0.626136887337E+06      0.659090605124E-01      0.000000000000E+00
     2      0.987076800000E+08      0.397800000000E+34      0.136769906613E+14      0.127561000468E+14      0.594999407312E+06     -0.644706616526E+06      0.659090605124E-01      0.000000000000E+00
     2      0.993384000000E+08      0.397800000000E+34      0.140492017040E+14      0.123466102105E+14      0.575416240345E+06     -0.662702234550E+06      0.659090605124E-01      0.000000000000E+00
     2      0.999691200000E+08      0.397800000000E+34      0.144089783353E+14      0.119258624866E+14      0.555311337742E+06     -0.680108727716E+06      0.659090605124E-01      0.000000000000E+00
     2      0.100599840000E+09      0.397800000000E+34      0.147559940989E+14      0.114942307712E+14      0.534701373209E+06     -0.696911458784E+06      0.659090605124E-01      0.000000000000E+00
     2      0.101230560000E+09      0.397800000000E+34      0.150899331198E+14      0.110520981313E+14      0.513603430423E+06     -0.713096179009E+06      0.659090605124E-01      0.000000000000E+00
     2      0.101861280000E+09      0.397800000000E+34      0.154104903622E+14      0.105998565583E+14      0.492034999789E+06     -0.728649040635E+06      0.659090605124E-01      0.000000000000E+00
     2      0.102492000000E+09      0.397800000000E+34      0.157173718857E+14      0.101379067129E+14      0.470013974750E+06     -0.743556609804E+06      0.659090605124E-01      0.000000000000E+00
     2      0.103122720000E+09      0.397800000000E+34      0.160102950986E+14      0.966665766188E+13      0.447558647604E+06     -0.757805879885E+06      0.659090605124E-01      0.000000000000E+00
     2      0.103753440000E+09      0.397800000000E+34      0.162889890090E+14      0.918652660677E+13      0.424687704783E+06     -0.771384285188E+06      0.659090605124E-01      0.000000000000E+00
     2      0.104384160000E+09      0.397800000000E+34      0.165531944723E+14      0.869793860317E+13      0.401420221561E+06     -0.784279715046E+06      0.659090605124E-01      0.000000000000E+00
     2      0.105014880000E+09      0.397800000000E+34      0.168026644358E+14      0.820132627174E+13      0.377775656149E+06     -0.796480528244E+06      0.659090605124E-01      0.000000000000E+00
     2      0.105645600000E+09      0.397800000000E+34      0.170371641790E+14      0.769712949973E+13      0.353773843130E+06     -0.807975567759E+06      0.659090605124E-01      0.000000000000E+00
     2      0.106276320000E+09      0.397800000000E+34      0.172564715499E+14      0.718579513320E+13      0.329434986203E+06     -0.818754175785E+06      0.659090605124E-01      0.000000000000E+00
     2      0.106907040000E+09      0.397800000000E+34      0.174603771969E+14      0.666777665982E+13      0.304779650189E+06     -0.828806209011E+06      0.659090605124E-01      0.000000000000E+00
     2      0.107537760000E+09      0.397800000000E+34      0.176486847948E+14      0.614353388187E+13      0.279828752280E+06     -0.838122054107E+06      0.659090605124E-01      0.000000000000E+00
     2      0.108168480000E+09      0.397800000000E+34      0.178212112658E+14      0.561353257953E+13      0.254603552470E+06     -0.846692643388E+06      0.659090605124E-01      0.000000000000E+00
     2      0.108799200000E+09      0.397800000000E+34      0.179777869939E+14      0.507824416427E+13      0.229125643156E+06     -0.854509470605E+06      0.659090605124E-01      0.000000000000E+00
     2      0.109429920000E+09      0.397800000000E+34      0.181182560331E+14      0.453814532221E+13      0.203416937874E+06     -0.861564606824E+06      0.659090605124E-01      0.000000000000E+00
     2      0.110060640000E+09      0.397800000000E+34      0.182424763079E+14      0.399371764747E+13      0.177499659122E+06     -0.867850716339E+06      0.659090605124E-01      0.000000000000E+00
     2      0.110691360000E+09      0.397800000000E+34      0.183503198061E+14      0.344544726555E+13      0.151396325278E+06     -0.873361072570E+06      0.659090605124E-01      0.000000000000E+00
     2      0.111322080000E+09      0.397800000000E+34      0.184416727635E+14      0.289382444662E+13      0.125129736547E+06     -0.878089573893E+06      0.659090605124E-01      0.000000000000E+00
     2      0.111952800000E+09      0.397800000000E+34      0.185164358388E+14      0.233934320885E+13      0.987229599495E+05     -0.882030759343E+06      0.659090605124E-01      0.000000000000E+00
     2      0.112583520000E+09      0.397800000000E+34      0.185745242799E+14      0.178250091190E+13      0.721993133201E+05     -0.885179824126E+06      0.659090605124E-01      0.000000000000E+00
     2      0.113214240000E+09      0.397800000000E+34      0.186158680795E+14      0.122379784063E+13      0.455823482929E+05     -0.887532634891E+06      0.659090605124E-01      0.000000000000E+00
     2      0.113844960000E+09      0.397800000000E+34      0.186404121191E+14      0.663736779228E+12      0.188958322778E+05     -0.889085744685E+06      0.659090605124E-01      0.000000000000E+00
     2      0.114475680000E+09      0.397800000000E+34      0.186481163029E+14      0.102822575999E+12     -0.783627059054E+04     -0.889836407529E+06      0.659090605124E-01      0.000000000000E+00
     2      0.115106400000E+09      0.397800000000E+34      0.186389556783E+14     -0.458438301028E+12     -0.345898195301E+05     -0.889782592546E+06      0.659090605124E-01      0.000000000000E+00
     2      0.115737120000E+09      0.397800000000E+34      0.186129205442E+14     -0.101953821729E+13     -0.613405182163E+05     -0.888922997580E+06      0.659090605124E-01      0.000000000000E+00
     2      0.116367840000E+09      0.397800000000E+34      0.185700165456E+14     -0.157996883337E+13     -0.880639369079E+05     -0.887257062214E+06      0.659090605124E-01      0.000000000000E+00
     2      0.116998560000E+09      0.397800000000E+34      0.185102647540E+14     -0.213922157484E+13     -0.114735535584E+06     -0.884784980140E+06      0.659090605124E-01      0.000000000000E+00
     2      0.117629280000E+09      0.397800000000E+34      0.184337017336E+14     -0.269678810973E+13     -0.141330688076E+06     -0.881507710785E+06      0.659090605124E-01      0.000000000000E+00
     2      0.118260000000E+09      0.397800000000E+34      0.183403795913E+14     -0.325216083322E+13     -0.167824707181E+06     -0.877426990137E+06      0.659090605124E-01      0.000000000000E+00
     2      0.118890720000E+09      0.397800000000E+34      0.182303660113E+14     -0.380483335908E+13     -0.194192870716E+06     -0.872545340686E+06      0.659090605124E-01      0.000000000000E+00
     2      0.119521440000E+09      0.397800000000E+34      0.181037442728E+14     -0.435430101715E+13     -0.220410448503E+06     -0.866866080408E+06      0.659090605124E-01      0.000000000000E+00
     2      0.120152160000E+09      0.397800000000E+34      0.179606132510E+14     -0.490006135638E+13     -0.246452730230E+06     -0.860393330727E+06      0.659090605124E-01      0.000000000000E+00
     2      0.120782880000E+09      0.397800000000E+34      0.178010873998E+14     -0.544161465269E+13     -0.272295054154E+06     -0.853132023371E+06      0.659090605124E-01      0.000000000000E+00
     2      0.121413600000E+09      0.397800000000E+34      0.176252967166E+14     -0.597846442105E+13     -0.297912836606E+06     -0.845087906059E+06      0.659090605124E-01      0.000000000000E+00
     2      0.122044320000E+09      0.397800000000E+34      0.174333866883E+14     -0.651011793079E+13     -0.323281602228E+06     -0.836267546951E+06      0.659090605124E-01      0.000000000000E+00
     2      0.122675040000E+09      0.397800000000E+34      0.172255182182E+14     -0.703608672371E+13     -0.348377014898E+06     -0.826678337791E+06      0.659090605124E-01      0.000000000000E+00
     2      0.123305760000E+09      0.397800000000E+34      0.170018675333E+14     -0.755588713384E+13     -0.373174909273E+06     -0.816328495680E+06      0.659090605124E-01      0.000000000000E+00
     2      0.123936480000E+09      0.397800000000E+34      0.167626260713E+14     -0.806904080808E+13     -0.397651322879E+06     -0.805227063419E+06      0.659090605124E-01      0.000000000000E+00
     2      0.124567200000E+09      0.397800000000E+34      0.165080003478E+14     -0.857507522692E+13     -0.421782528679E+06     -0.793383908375E+06      0.659090605124E-01      0.000000000000E+00
     2      0.125197920000E+09      0.397800000000E+34      0.162382118025E+14     -0.907352422412E+13     -0.445545068035E+06     -0.780809719794E+06      0.659090605124E-01      0.000000000000E+00
     2      0.125828640000E+09      0.397800000000E+34      0.159534966246E+14     -0.956392850449E+13     -0.468915783977E+06     -0.767516004542E+06      0.659090605124E-01      0.000000000000E+00
     2      0.126459360000E+09      0.397800000000E+34      0.156541055574E+14     -0.100458361587E+14     -0.491871854697E+06     -0.753515081216E+06      0.659090605124E-01      0.000000000000E+00
     2      0.127090080000E+09      0.397800000000E+34      0.153403036815E+14     -0.105188031741E+14     -0.514390827167E+06     -0.738820072580E+06      0.659090605124E-01      0.000000000000E+00
     2      0.127720800000E+09      0.397800000000E+34      0.150123701770E+14     -0.109823939407E+14     -0.536450650792E+06     -0.723444896320E+06      0.659090605124E-01      0.000000000000E+00
     2      0.128351520000E+09      0.397800000000E+34      0.146705980643E+14     -0.114361817506E+14     -0.558029710988E+06     -0.707404254068E+06      0.659090605124E-01      0.000000000000E+00
     2      0.128982240000E+09      0.397800000000E+34      0.143152939237E+14     -0.118797492907E+14     -0.579106862589E+06     -0.690713618692E+06      0.659090605124E-01      0.000000000000E+00
     2      0.129612960000E+09      0.397800000000E+34      0.139467775946E+14     -0.123126891269E+14     -0.599661462975E+06     -0.673389219834E+06      0.659090605124E-01      0.000000000000E+00
     2      0.130243680000E+09      0.397800000000E+34      0.135653818527E+14     -0.127346041790E+14     -0.619673404803E+06     -0.655448027701E+06      0.659090605124E-01      0.000000000000E+00
     2      0.130874400000E+09      0.397800000000E+34      0.131714520675E+14     -0.131451081848E+14     -0.639123148254E+06     -0.636907735096E+06      0.659090605124E-01      0.000000000000E+00
     2      0.131505120000E+09      0.397800000000E+34      0.127653458397E+14     -0.135438261530E+14     -0.657991752655E+06     -0.617786737726E+06      0.659090605124E-01      0.000000000000E+00
     2      0.132135840000E+09      0.397800000000E+34      0.123474326180E+14     -0.139303948030E+14     -0.676260907394E+06     -0.598104112776E+06      0.659090605124E-01      0.000000000000E+00
     2      0.132766560000E+09      0.397800000000E+34      0.119180932969E+14     -0.143044629917E+14     -0.693912961999E+06     -0.577879595807E+06      0.659090605124E-01      0.000000000000E+00
     2      0.133397280000E+09      0.397800000000E+34      0.114777197961E+14     -0.146656921242E+14     -0.710930955273E+06     -0.557133555992E+06      0.659090605124E-01      0.000000000000E+00
     2      0.134028000000E+09      0.397800000000E+34      0.110267146208E+14     -0.150137565497E+14     -0.727298643388E+06     -0.535886969739E+06      0.659090605124E-01      0.000000000000E+00
     2      0.134658720000E+09      0.397800000000E+34      0.105654904053E+14     -0.153483439404E+14     -0.743000526818E+06     -0.514161392758E+06      0.659090605124E-01      0.000000000000E+00
     2      0.135289440000E+09      0.397800000000E+34      0.100944694394E+14     -0.156691556516E+14     -0.758021876020E+06     -0.491978930634E+06      0.659090605124E-01      0.000000000000E+00
     2      0.135920160000E+09      0.397800000000E+34      0.961408317872E+13     -0.159759070644E+14     -0.772348755757E+06     -0.469362207952E+06      0.659090605124E-01      0.000000000000E+00
     2      0.136550880000E+09      0.397800000000E+34      0.912477174009E+13     -0.162683279076E+14     -0.785968047966E+06     -0.446334336081E+06      0.659090605124E-01      0.000000000000E+00
     2      0.137181600000E+09      0.397800000000E+34      0.862698338283E+13     -0.165461625597E+14     -0.798867473089E+06     -0.422918879670E+06      0.659090605124E-01      0.000000000000E+00
     2      0.137812320000E+09      0.397800000000E+34      0.812117397664E+13     -0.168091703293E+14     -0.811035609774E+06     -0.399139821963E+06      0.659090605124E-01      0.000000000000E+00
     2      0.138443040000E+09      0.397800000000E+34      0.760780645738E+13     -0.170571257134E+14     -0.822461912871E+06     -0.375021529019E+06      0.659090605124E-01      0.000000000000E+00
     2      0.139073760000E+09      0.397800000000E+34      0.708735027186E+13     -0.172898186332E+14     -0.833136729653E+06     -0.350588712941E+06      0.659090605124E-01      0.000000000000E+00
     2      0.139704480000E+09      0.397800000000E+34      0.656028081259E+13     -0.175070546466E+14     -0.843051314190E+06     -0.325866394220E+06      0.659090605124E-01      0.000000000000E+00
     2      0.140335200000E+09      0.397800000000E+34      0.602707884382E+13     -0.177086551363E+14     -0.852197839822E+06     -0.300879863309E+06      0.659090605124E-01      0.000000000000E+00
     2      0.140965920000E+09      0.397800000000E+34      0.548822991999E+13     -0.178944574744E+14     -0.860569409684E+06     -0.275654641527E+06      0.659090605124E-01      0.000000000000E+00
     2      0.141596640000E+09      0.397800000000E+34      0.494422379788E+13     -0.180643151613E+14     -0.868160065235E+06     -0.250216441442E+06      0.659090605124E-01      0.000000000000E+00
     2      0.142227360000E+09      0.397800000000E+34      0.439555384368E+13     -0.182180979404E+14     -0.874964792765E+06     -0.224591126818E+06      0.659090605124E-01      0.000000000000E+00
     2      0.142858080000E+09      0.397800000000E+34      0.384271643626E+13     -0.183556918870E+14     -0.880979527846E+06     -0.198804672283E+06      0.659090605124E-01      0.000000000000E+00
     2      0.143488800000E+09      0.397800000000E+34      0.328621036803E+13     -0.184769994715E+14     -0.886201157718E+06     -0.172883122822E+06      0.659090605124E-01      0.000000000000E+00
     2      0.144119520000E+09      0.397800000000E+34      0.272653624452E+13     -0.185819395981E+14     -0.890627521610E+06     -0.146852553234E+06      0.659090605124E-01      0.000000000000E+00
     2      0.144750240000E+09      0.397800000000E+34      0.216419588416E+13     -0.186704476167E+14     -0.894257408975E+06     -0.120739027675E+06      0.659090605124E-01      0.000000000000E+00
     2      0.145380960000E+09      0.397800000000E+34      0.159969171949E+13     -0.187424753097E+14     -0.897090555682E+06     -0.945685594097E+05      0.659090605124E-01      0.000000000000E+00
     2      0.146011680000E+09      0.397800000000E+34      0.103352620105E+13     -0.187979908542E+14     -0.899127638160E+06     -0.683670709064E+05      0.659090605124E-01      0.000000000000E+00
     2      0.146642400000E+09      0.397800000000E+34      0.466201205331E+12     -0.188369787577E+14     -0.900370265531E+06     -0.421603543892E+05      0.659090605124E-01      0.000000000000E+00
     2      0.147273120000E+09      0.397800000000E+34     -0.101782552023E+12     -0.188594397707E+14     -0.900820969776E+06     -0.159740329716E+05      0.659090605124E-01      0.000000000000E+00
     2      0.147903840000E+09      0.397800000000E+34     -0.669926096502E+12     -0.188653907731E+14     -0.900483193971E+06      0.101664775130E+05      0.659090605124E-01      0.000000000000E+00
     2      0.148534560000E+09      0.397800000000E+34     -0.123773276730E+13     -0.188548646383E+14     -0.899361278655E+06      0.362360058703E+05      0.659090605124E-01      0.000000000000E+00
     2      0.149165280000E+09      0.397800000000E+34     -0.180470878099E+13     -0.188279100725E+14     -0.897460446373E+06      0.622096619864E+05      0.659090605124E-01      0.000000000000E+00
     2      0.149796000000E+09      0.397800000000E+34     -0.237036378518E+13     -0.187845914322E+14     -0.894786784497E+06      0.880628722481E+05      0.659090605124E-01      0.000000000000E+00
     2      0.150426720000E+09      0.397800000000E+34     -0.293421140110E+13     -0.187249885189E+14     -0.891347226356E+06      0.113771413846E+06      0.659090605124E-01      0.000000000000E+00
     2      0.151057440000E+09      0.397800000000E+34     -0.349576975394E+13     -0.186491963527E+14     -0.887149530797E+06      0.139311447865E+06      0.659090605124E-01      0.000000000000E+00
     2      0.151688160000E+09      0.397800000000E+34     -0.405456199016E+13     -0.185573249252E+14     -0.882202260230E+06      0.164659551087E+06      0.659090605124E-01      0.000000000000E+00
     2      0.152318880000E+09      0.397800000000E+34     -0.461011678069E+13     -0.184494989321E+14     -0.876514757278E+06      0.189792746417E+06      0.659090605124E-01      0.000000000000E+00
     2      0.152949600000E+09      0.397800000000E+34     -0.516196880914E+13     -0.183258574875E+14     -0.870097120098E+06      0.214688531869E+06      0.659090605124E-01      0.000000000000E+00
     2      0.153580320000E+09      0.397800000000E+34     -0.570965924434E+13     -0.181865538198E+14     -0.862960176504E+06      0.239324908051E+06      0.659090605124E-01      0.000000000000E+00
     2      0.154211040000E+09      0.397800000000E+34     -0.625273619634E+13     -0.180317549504E+14     -0.855115456959E+06      0.263680404083E+06      0.659090605124E-01      0.000000000000E+00
     2      0.154841760000E+09      0.397800000000E+34     -0.679075515514E+13     -0.178616413567E+14     -0.846575166583E+06      0.287734101912E+06      0.659090605124E-01      0.000000000000E+00
     2      0.155472480000E+09      0.397800000000E+34     -0.732327941176E+13     -0.176764066196E+14     -0.837352156238E+06      0.311465658982E+06      0.659090605124E-01      0.000000000000E+00
     2      0.156103200000E+09      0.397800000000E+34     -0.784988046085E+13     -0.174762570571E+14     -0.827459892839E+06      0.334855329222E+06      0.659090605124E-01      0.000000000000E+00
     2      0.156733920000E+09      0.397800000000E+34     -0.837013838443E+13     -0.172614113452E+14     -0.816912428975E+06      0.357883982327E+06      0.659090605124E-01      0.000000000000E+00
     2      0.157364640000E+09      0.397800000000E+34     -0.888364221651E+13     -0.170321001266E+14     -0.805724371949E+06      0.380533121327E+06      0.659090605124E-01      0.000000000000E+00
     2      0.157995360000E+09      0.397800000000E+34     -0.938999028796E+13     -0.167885656084E+14     -0.793910852362E+06      0.402784898425E+06      0.659090605124E-01      0.000000000000E+00
     2      0.158626080000E+09      0.397800000000E+34     -0.988879055157E+13     -0.165310611509E+14     -0.781487492328E+06      0.424622129101E+06      0.659090605124E-01      0.000000000000E+00
     2      0.159256800000E+09      0.397800000000E+34     -0.103796608870E+14     -0.162598508467E+14     -0.768470373438E+06      0.446028304497E+06      0.659090605124E-01      0.000000000000E+00
     2      0.159887520000E+09      0.397800000000E+34     -0.108622293857E+14     -0.159752090932E+14     -0.754876004569E+06      0.466987602089E+06      0.659090605124E-01      0.000000000000E+00
     2      0.160518240000E+09      0.397800000000E+34     -0.113361346149E+14     -0.156774201580E+14     -0.740721289640E+06      0.487484894663E+06      0.659090605124E-01      0.000000000000E+00
     2      0.161148960000E+09      0.397800000000E+34     -0.118010258622E+14     -0.153667777391E+14     -0.726023495412E+06      0.507505757629E+06      0.659090605124E-01      0.000000000000E+00
     2      0.161779680000E+09      0.397800000000E+34     -0.122565633589E+14     -0.150435845210E+14     -0.710800219424E+06      0.527036474695E+06      0.659090605124E-01      0.000000000000E+00
     2      0.162410400000E+09      0.397800000000E+34     -0.127024184840E+14     -0.147081517272E+14     -0.695069358158E+06      0.546064041940E+06      0.659090605124E-01      0.000000000000E+00
     2      0.163041120000E+09      0.397800000000E+34     -0.131382739473E+14     -0.143607986703E+14     -0.678849075514E+06      0.564576170333E+06      0.659090605124E-01      0.000000000000E+00
     2      0.163671840000E+09      0.397800000000E+34     -0.135638239538E+14     -0.140018523009E+14     -0.662157771676E+06      0.582561286738E+06      0.659090605124E-01      0.000000000000E+00
     2      0.164302560000E+09      0.397800000000E+34     -0.139787743471E+14     -0.136316467562E+14     -0.645014052448E+06      0.600008533454E+06      0.659090605124E-01      0.000000000000E+00
     2      0.164933280000E+09      0.397800000000E+34     -0.143828427350E+14     -0.132505229091E+14     -0.627436699129E+06      0.616907766353E+06      0.659090605124E-01      0.000000000000E+00
     2      0.165564000000E+09      0.397800000000E+34     -0.147757585950E+14     -0.128588279182E+14     -0.609444638997E+06      0.633249551665E+06      0.659090605124E-01      0.000000000000E+00
     2      0.166194720000E+09      0.397800000000E+34     -0.151572633620E+14     -0.124569147808E+14     -0.591056916453E+06      0.649025161470E+06      0.659090605124E-01      0.000000000000E+00
     2      0.166825440000E+09      0.397800000000E+34     -0.155271104980E+14     -0.120451418884E+14     -0.572292664898E+06      0.664226567969E+06      0.659090605124E-01      0.000000000000E+00
     2      0.167456160000E+09      0.397800000000E+34     -0.158850655432E+14     -0.116238725862E+14     -0.553171079372E+06      0.678846436586E+06      0.659090605124E-01      0.000000000000E+00
     2      0.168086880000E+09      0.397800000000E+34     -0.162309061514E+14     -0.111934747372E+14     -0.533711390022E+06      0.692878117978E+06      0.659090605124E-01      0.000000000000E+00
     2      0.168717600000E+09      0.397800000000E+34     -0.165644221075E+14     -0.107543202910E+14     -0.513932836424E+06      0.706315639016E+06      0.659090605124E-01      0.000000000000E+00
     2      0.169348320000E+09      0.397800000000E+34     -0.168854153298E+14     -0.103067848594E+14     -0.493854642801E+06      0.719153692797E+06      0.659090605124E-01      0.000000000000E+00
     2      0.169979040000E+09      0.397800000000E+34     -0.171936998565E+14     -0.985124729732E+13     -0.473495994166E+06      0.731387627779E+06      0.659090605124E-01      0.000000000000E+00
     2      0.170609760000E+09      0.397800000000E+34     -0.174891018171E+14     -0.938808929175E+13     -0.452876013418E+06      0.743013436074E+06      0.659090605124E-01      0.000000000000E+00
     2      0.171240480000E+09      0.397800000000E+34     -0.177714593901E+14     -0.891769495740E+13     -0.432013739401E+06      0.754027741002E+06      0.659090605124E-01      0.000000000000E+00
     2      0.171871200000E+09      0.397800000000E+34     -0.180406227463E+14     -0.844045044074E+13     -0.410928105958E+06      0.764427783945E+06      0.659090605124E-01      0.000000000000E+00
     2      0.172501920000E+09      0.397800000000E+34     -0.182964539794E+14     -0.795674353233E+13     -0.389637921979E+06      0.774211410588E+06      0.659090605124E-01      0.000000000000E+00
     2      0.173132640000E+09      0.397800000000E+34     -0.185388270246E+14     -0.746696328789E+13     -0.368161852454E+06      0.783377056601E+06      0.659090605124E-01      0.000000000000E+00
     2      0.173763360000E+09      0.397800000000E+34     -0.187676275643E+14     -0.697149965852E+13     -0.346518400538E+06      0.791923732831E+06      0.659090605124E-01      0.000000000000E+00
     2      0.174394080000E+09      0.397800000000E+34     -0.189827529240E+14     -0.647074313027E+13     -0.324725890620E+06      0.799851010068E+06      0.659090605124E-01      0.000000000000E+00
     2      0.175024800000E+09      0.397800000000E+34     -0.191841119563E+14     -0.596508437347E+13     -0.302802452399E+06      0.807159003440E+06      0.659090605124E-01      0.000000000000E+00
     2      0.175655520000E+09      0.397800000000E+34     -0.193716249165E+14     -0.545491390188E+13     -0.280766005957E+06      0.813848356502E+06      0.659090605124E-01      0.000000000000E+00
     2      0.176286240000E+09      0.397800000000E+34     -0.195452233274E+14     -0.494062174195E+13     -0.258634247815E+06      0.819920225076E+06      0.659090605124E-01      0.000000000000E+00
     2      0.176916960000E+09      0.397800000000E+34     -0.197048498367E+14     -0.442259711225E+13     -0.236424637967E+06      0.825376260891E+06      0.659090605124E-01      0.000000000000E+00
     2      0.177547680000E+09      0.397800000000E+34     -0.198504580657E+14     -0.390122811338E+13     -0.214154387865E+06      0.830218595076E+06      0.659090605124E-01      0.000000000000E+00
     2      0.178178400000E+09      0.397800000000E+34     -0.199820124508E+14     -0.337690142812E+13     -0.191840449345E+06      0.834449821567E+06      0.659090605124E-01      0.000000000000E+00
     2      0.178809120000E+09      0.397800000000E+34     -0.200994880780E+14     -0.285000203221E+13     -0.169499504470E+06      0.838072980460E+06      0.659090605124E-01      0.000000000000E+00
     2      0.179439840000E+09      0.397800000000E+34     -0.202028705115E+14     -0.232091291557E+13     -0.147147956270E+06      0.841091541361E+06      0.659090605124E-01      0.000000000000E+00
     2      0.180070560000E+09      0.397800000000E+34     -0.202921556162E+14     -0.179001481401E+13     -0.124801920351E+06      0.843509386778E+06      0.659090605124E-01      0.000000000000E+00
     2      0.180701280000E+09      0.397800000000E+34     -0.203673493752E+14     -0.125768595138E+13     -0.102477217347E+06      0.845330795594E+06      0.659090605124E-01      0.000000000000E+00
     2      0.181332000000E+09      0.397800000000E+34     -0.204284677025E+14     -0.724301792246E+12     -0.801893661909E+05      0.846560426652E+06      0.659090605124E-01      0.000000000000E+00
     2      0.181962720000E+09      0.397800000000E+34     -0.204755362522E+14     -0.190234804731E+12     -0.579535781795E+05      0.847203302491E+06      0.659090605124E-01      0.000000000000E+00
     2      0.182593440000E+09      0.397800000000E+34     -0.205085902231E+14      0.344145766291E+12     -0.357847517914E+05      0.847264793270E+06      0.659090605124E-01      0.000000000000E+00
     2      0.183224160000E+09      0.397800000000E+34     -0.205276741610E+14      0.878474115942E+12     -0.136974682406E+05      0.846750600895E+06      0.659090605124E-01      0.000000000000E+00
     2      0.183854880000E+09      0.397800000000E+34     -0.205328417579E+14      0.141238808611E+13      0.829401227219E+04      0.845666743395E+06      0.659090605124E-01      0.000000000000E+00
     2      0.184485600000E+09      0.397800000000E+34     -0.205241556489E+14      0.194552936240E+13      0.301757536374E+05      0.844019539549E+06      0.659090605124E-01      0.000000000000E+00
     2      0.185116320000E+09      0.397800000000E+34     -0.205016872076E+14      0.247754366142E+13      0.519341462774E+05      0.841815593811E+06      0.659090605124E-01      0.000000000000E+00
     2      0.185747040000E+09      0.397800000000E+34     -0.204655163397E+14      0.300808090864E+13      0.735559089801E+05      0.839061781533E+06      0.659090605124E-01      0.000000000000E+00
     2      0.186377760000E+09      0.397800000000E+34     -0.204157312755E+14      0.353679540695E+13      0.950280901561E+05      0.835765234507E+06      0.659090605124E-01      0.000000000000E+00
     2      0.187008480000E+09      0.397800000000E+34     -0.203524283624E+14      0.406334599617E+13      0.116338068552E+06      0.831933326858E+06      0.659090605124E-01      0.000000000000E+00
     2      0.187639200000E+09      0.397800000000E+34     -0.202757118558E+14      0.458739620369E+13      0.137473553448E+06      0.827573661279E+06      0.659090605124E-01      0.000000000000E+00
     2      0.188269920000E+09      0.397800000000E+34     -0.201856937113E+14      0.510861438652E+13      0.158422584373E+06      0.822694055630E+06      0.659090605124E-01      0.000000000000E+00
     2      0.188900640000E+09      0.397800000000E+34     -0.200824933760E+14      0.562667386495E+13      0.179173530370E+06      0.817302529916E+06      0.659090605124E-01      0.000000000000E+00
     2      0.189531360000E+09      0.397800000000E+34     -0.199662375812E+14      0.614125304799E+13      0.199715088825E+06      0.811407293643E+06      0.659090605124E-01      0.000000000000E+00
     2      0.190162080000E+09      0.397800000000E+34     -0.198370601353E+14      0.665203555101E+13      0.220036283917E+06      0.805016733559E+06      0.659090605124E-01      0.000000000000E+00
     2      0.190792800000E+09      0.397800000000E+34     -0.196951017180E+14      0.715871030556E+13      0.240126464688E+06      0.798139401797E+06      0.659090605124E-01      0.000000000000E+00
     2      0.191423520000E+09      0.397800000000E+34     -0.195405096761E+14      0.766097166196E+13      0.259975302781E+06      0.790784004402E+06      0.659090605124E-01      0.000000000000E+00
     2      0.192054240000E+09      0.397800000000E+34     -0.193734378198E+14      0.815851948450E+13      0.279572789858E+06      0.782959390264E+06      0.659090605124E-01      0.000000000000E+00
     2      0.192684960000E+09      0.397800000000E+34     -0.191940462217E+14      0.865105923994E+13      0.298909234742E+06      0.774674540451E+06      0.659090605124E-01      0.000000000000E+00
     2      0.193315680000E+09      0.397800000000E+34     -0.190025010173E+14      0.913830207919E+13      0.317975260281E+06      0.765938557930E+06      0.659090605124E-01      0.000000000000E+00
     2      0.193946400000E+09      0.397800000000E+34     -0.187989742074E+14      0.961996491261E+13      0.336761799996E+06      0.756760657698E+06      0.659090605124E-01      0.000000000000E+00
     2      0.194577120000E+09      0.397800000000E+34     -0.185836434623E+14      0.100957704792E+14      0.355260094491E+06      0.747150157296E+06      0.659090605124E-01      0.000000000000E+00
     2      0.195207840000E+09      0.397800000000E+34     -0.183566919293E+14      0.105654474098E+14      0.373461687690E+06      0.737116467719E+06      0.659090605124E-01      0.000000000000E+00
     2      0.195838560000E+09      0.397800000000E+34     -0.181183080418E+14      0.110287302846E+14      0.391358422895E+06      0.726669084712E+06      0.659090605124E-01      0.000000000000E+00
     2      0.196469280000E+09      0.397800000000E+34     -0.178686853310E+14      0.114853596855E+14      0.408942438696E+06      0.715817580441E+06      0.659090605124E-01      0.000000000000E+00
     2      0.197100000000E+09      0.397800000000E+34     -0.176080222402E+14      0.119350822425E+14      0.426206164752E+06      0.704571595549E+06      0.659090605124E-01      0.000000000000E+00
     2      0.197730720000E+09      0.397800000000E+34     -0.173365219425E+14      0.123776506765E+14      0.443142317462E+06      0.692940831568E+06      0.659090605124E-01      0.000000000000E+00
     2      0.198361440000E+09      0.397800000000E+34     -0.170543921597E+14      0.128128238357E+14      0.459743895539E+06      0.680935043704E+06      0.659090605124E-01      0.000000000000E+00
     2      0.198992160000E+09      0.397800000000E+34     -0.167618449858E+14      0.132403667290E+14      0.476004175512E+06      0.668564033964E+06      0.659090605124E-01      0.000000000000E+00
     2      0.199622880000E+09      0.397800000000E+34     -0.164590967122E+14      0.136600505540E+14      0.491916707170E+06      0.655837644637E+06      0.659090605124E-01      0.000000000000E+00
     2      0.200253600000E+09      0.397800000000E+34     -0.161463676558E+14      0.140716527220E+14      0.507475308955E+06      0.642765752109E+06      0.659090605124E-01      0.000000000000E+00
     2      0.200884320000E+09      0.397800000000E+34     -0.158238819908E+14      0.144749568777E+14      0.522674063332E+06      0.629358261004E+06      0.659090605124E-01      0.000000000000E+00
     2      0.201515040000E+09      0.397800000000E+34     -0.154918675823E+14      0.148697529171E+14      0.537507312137E+06      0.615625098644E+06      0.659090605124E-01      0.000000000000E+00
     2      0.202145760000E+09      0.397800000000E+34     -0.151505558240E+14      0.152558370003E+14      0.551969651927E+06      0.601576209824E+06      0.659090605124E-01      0.000000000000E+00
     2      0.202776480000E+09      0.397800000000E+34     -0.148001814780E+14      0.156330115619E+14      0.566055929334E+06      0.587221551876E+06      0.659090605124E-01      0.000000000000E+00
     2      0.203407200000E+09      0.397800000000E+34     -0.144409825178E+14      0.160010853184E+14      0.579761236442E+06      0.572571090037E+06      0.659090605124E-01      0.000000000000E+00
     2      0.204037920000E+09      0.397800000000E+34     -0.140731999744E+14      0.163598732722E+14      0.593080906193E+06      0.557634793082E+06      0.659090605124E-01      0.000000000000E+00
     2      0.204668640000E+09      0.397800000000E+34     -0.136970777847E+14      0.167091967131E+14      0.606010507832E+06      0.542422629240E+06      0.659090605124E-01      0.000000000000E+00
     2      0.205299360000E+09      0.397800000000E+34     -0.133128626437E+14      0.170488832178E+14      0.618545842407E+06      0.526944562362E+06      0.659090605124E-01      0.000000000000E+00
     2      0.205930080000E+09      0.397800000000E+34     -0.129208038586E+14      0.173787666462E+14      0.630682938317E+06      0.511210548346E+06      0.659090605124E-01      0.000000000000E+00
     2      0.206560800000E+09      0.397800000000E+34     -0.125211532063E+14      0.176986871358E+14      0.642418046938E+06      0.495230531793E+06      0.659090605124E-01      0.000000000000E+00
     2      0.207191520000E+09      0.397800000000E+34     -0.121141647933E+14      0.180084910944E+14      0.653747638311E+06      0.479014442901E+06      0.659090605124E-01      0.000000000000E+00
     2      0.207822240000E+09      0.397800000000E+34     -0.117000949188E+14      0.183080311902E+14      0.664668396917E+06      0.462572194578E+06      0.659090605124E-01      0.000000000000E+00
     2      0.208452960000E+09      0.397800000000E+34     -0.112792019394E+14      0.185971663406E+14      0.675177217535E+06      0.445913679758E+06      0.659090605124E-01      0.000000000000E+00
     2      0.209083680000E+09      0.397800000000E+34     -0.108517461379E+14      0.188757616994E+14      0.685271201189E+06      0.429048768930E+06      0.659090605124E-01      0.000000000000E+00
     2      0.209714400000E+09      0.397800000000E+34     -0.104179895934E+14      0.191436886421E+14      0.694947651197E+06      0.411987307843E+06      0.659090605124E-01      0.000000000000E+00
     2      0.210345120000E+09      0.397800000000E+34     -0.997819605431E+13      0.194008247497E+14      0.704204069315E+06      0.394739115405E+06      0.659090605124E-01      0.000000000000E+00
     2      0.210975840000E+09      0.397800000000E+34     -0.953263081406E+13      0.196470537919E+14      0.713038151991E+06      0.377313981743E+06      0.659090605124E-01      0.000000000000E+00
     2      0.211606560000E+09      0.397800000000E+34     -0.908156058857E+13      0.198822657085E+14      0.721447786724E+06      0.359721666431E+06      0.659090605124E-01      0.000000000000E+00
     2      0.212237280000E+09      0.397800000000E+34     -0.862525339653E+13      0.201063565898E+14      0.729431048533E+06      0.341971896872E+06      0.659090605124E-01      0.000000000000E+00
     2      0.212868000000E+09      0.397800000000E+34     -0.816397844154E+13      0.203192286561E+14      0.736986196551E+06      0.324074366813E+06      0.659090605124E-01      0.000000000000E+00
     2      0.213498720000E+09      0.397800000000E+34     -0.769800599659E+13      0.205207902364E+14      0.744111670720E+06      0.306038735012E+06      0.659090605124E-01      0.000000000000E+00
     2      0.214129440000E+09      0.397800000000E+34     -0.722760729050E+13      0.207109557458E+14      0.750806088621E+06      0.287874624012E+06      0.659090605124E-01      0.000000000000E+00
     2      0.214760160000E+09      0.397800000000E+34     -0.675305439634E+13      0.208896456627E+14      0.757068242411E+06      0.269591619048E+06      0.659090605124E-01      0.000000000000E+00
     2      0.215390880000E+09      0.397800000000E+34     -0.627462012184E+13      0.210567865054E+14      0.762897095896E+06      0.251199267052E+06      0.659090605124E-01      0.000000000000E+00
     2      0.216021600000E+09      0.397800000000E+34     -0.579257790152E+13      0.212123108072E+14      0.768291781712E+06      0.232707075764E+06      0.659090605124E-01      0.000000000000E+00
     2      0.216652320000E+09      0.397800000000E+34     -0.530720169070E+13      0.213561570918E+14      0.773251598645E+06      0.214124512930E+06      0.659090605124E-01      0.000000000000E+00
     2      0.217283040000E+09      0.397800000000E+34     -0.481876586104E+13      0.214882698483E+14      0.777776009065E+06      0.195461005595E+06      0.659090605124E-01      0.000000000000E+00
     2      0.217913760000E+09      0.397800000000E+34     -0.432754509781E+13      0.216085995049E+14      0.781864636491E+06      0.176725939456E+06      0.659090605124E-01      0.000000000000E+00
     2      0.218544480000E+09      0.397800000000E+34     -0.383381429859E+13      0.217171024030E+14      0.785517263276E+06      0.157928658301E+06      0.659090605124E-01      0.000000000000E+00
     2      0.219175200000E+09      0.397800000000E+34     -0.333784847347E+13      0.218137407707E+14      0.788733828421E+06      0.139078463494E+06      0.659090605124E-01      0.000000000000E+00
     2      0.219805920000E+09      0.397800000000E+34     -0.283992264653E+13      0.218984826959E+14      0.791514425511E+06      0.120184613527E+06      0.659090605124E-01      0.000000000000E+00
     2      0.220436640000E+09      0.397800000000E+34     -0.234031175870E+13      0.219713020991E+14      0.793859300773E+06      0.101256323609E+06      0.659090605124E-01      0.000000000000E+00
     2      0.221067360000E+09      0.397800000000E+34     -0.183929057176E+13      0.220321787063E+14      0.795768851263E+06      0.823027653011E+05      0.659090605124E-01      0.000000000000E+00
     2      0.221698080000E+09      0.397800000000E+34     -0.133713357348E+13      0.220810980212E+14      0.797243623165E+06      0.633330661788E+05      0.659090605124E-01      0.000000000000E+00
     2      0.222328800000E+09      0.397800000000E+34     -0.834114883795E+12      0.221180512974E+14      0.798284310216E+06      0.443563095274E+05      0.659090605124E-01      0.000000000000E+00
     2      0.222959520000E+09      0.397800000000E+34     -0.330508162017E+12      0.221430355107E+14      0.798891752254E+06      0.253815340516E+05      0.659090605124E-01      0.000000000000E+00
     2      0.223590240000E+09      0.397800000000E+34      0.173413485128E+12      0.221560533304E+14      0.799066933870E+06      0.641773360027E+04      0.659090605124E-01      0.000000000000E+00
     2      0.224220960000E+09      0.397800000000E+34      0.677377594597E+12      0.221571130917E+14      0.798810983189E+06     -0.125261431013E+05      0.659090605124E-01      0.000000000000E+00
     2      0.224851680000E+09      0.397800000000E+34      0.118111243737E+13      0.221462287664E+14      0.798125170759E+06     -0.314411927189E+05      0.659090605124E-01      0.000000000000E+00
     2      0.225482400000E+09      0.397800000000E+34      0.168434710813E+13      0.221234199349E+14      0.797010908548E+06     -0.503185575815E+05      0.659090605124E-01      0.000000000000E+00
     2      0.226113120000E+09      0.397800000000E+34      0.218681161431E+13      0.220887117569E+14      0.795469749054E+06     -0.691494259650E+05      0.659090605124E-01      0.000000000000E+00
     2      0.226743840000E+09      0.397800000000E+34      0.268823696459E+13      0.220421349427E+14      0.793503384524E+06     -0.879250323914E+05      0.659090605124E-01      0.000000000000E+00
     2      0.227374560000E+09      0.397800000000E+34      0.318835525694E+13      0.219837257238E+14      0.791113646268E+06     -0.106636657951E+06      0.659090605124E-01      0.000000000000E+00
     2      0.228005280000E+09      0.397800000000E+34      0.368689976623E+13      0.219135258233E+14      0.788302504086E+06     -0.125275630653E+06      0.659090605124E-01      0.000000000000E+00
     2      0.228636000000E+09      0.397800000000E+34      0.418360503151E+13      0.218315824268E+14      0.785072065782E+06     -0.143833325805E+06      0.659090605124E-01      0.000000000000E+00
     2      0.229266720000E+09      0.397800000000E+34      0.467820694296E+13      0.217379481519E+14      0.781424576783E+06     -0.162301166438E+06      0.659090605124E-01      0.000000000000E+00
     2      0.229897440000E+09      0.397800000000E+34      0.517044282868E+13      0.216326810184E+14      0.777362419844E+06     -0.180670623766E+06      0.659090605124E-01      0.000000000000E+00
     2      0.230528160000E+09      0.397800000000E+34      0.566005154123E+13      0.215158444177E+14      0.772888114844E+06     -0.198933217703E+06      0.659090605124E-01      0.000000000000E+00
     2      0.231158880000E+09      0.397800000000E+34      0.614677354413E+13      0.213875070820E+14      0.768004318669E+06     -0.217080517422E+06      0.659090605124E-01      0.000000000000E+00
     2      0.231789600000E+09      0.397800000000E+34      0.663035099824E+13      0.212477430530E+14      0.762713825176E+06     -0.235104141983E+06      0.659090605124E-01      0.000000000000E+00
     2      0.232420320000E+09      0.397800000000E+34      0.711052784817E+13      0.210966316509E+14      0.757019565233E+06     -0.252995761013E+06      0.659090605124E-01      0.000000000000E+00
     2      0.233051040000E+09      0.397800000000E+34      0.758704990868E+13      0.209342574415E+14      0.750924606837E+06     -0.270747095464E+06      0.659090605124E-01      0.000000000000E+00
     2      0.233681760000E+09      0.397800000000E+34      0.805966495126E+13      0.207607102045E+14      0.744432155304E+06     -0.288349918430E+06      0.659090605124E-01      0.000000000000E+00
     2      0.234312480000E+09      0.397800000000E+34      0.852812279070E+13      0.205760849000E+14      0.737545553517E+06     -0.305796056048E+06      0.659090605124E-01      0.000000000000E+00
     2      0.234943200000E+09      0.397800000000E+34      0.899217537196E+13      0.203804816351E+14      0.730268282245E+06     -0.323077388475E+06      0.659090605124E-01      0.000000000000E+00
     2      0.235573920000E+09      0.397800000000E+34      0.945157685718E+13      0.201740056295E+14      0.722603960516E+06     -0.340185850947E+06      0.659090605124E-01      0.000000000000E+00
     2      0.236204640000E+09      0.397800000000E+34      0.990608371293E+13      0.199567671807E+14      0.714556346044E+06     -0.357113434932E+06      0.659090605124E-01      0.000000000000E+00
     2      0.236835360000E+09      0.397800000000E+34      0.103554547978E+14      0.197288816286E+14      0.706129335703E+06     -0.373852189363E+06      0.659090605124E-01      0.000000000000E+00
     2      0.237466080000E+09      0.397800000000E+34      0.107994514501E+14      0.194904693184E+14      0.697326966048E+06     -0.390394221973E+06      0.659090605124E-01      0.000000000000E+00
     2      0.238096800000E+09      0.397800000000E+34      0.112378375764E+14      0.192416555640E+14      0.688153413869E+06     -0.406731700730E+06      0.659090605124E-01      0.000000000000E+00
     2      0.238727520000E+09      0.397800000000E+34      0.116703797396E+14      0.189825706091E+14      0.678612996782E+06     -0.422856855363E+06      0.659090605124E-01      0.000000000000E+00
     2      0.239358240000E+09      0.397800000000E+34      0.120968472482E+14      0.187133495887E+14      0.668710173853E+06     -0.438761979003E+06      0.659090605124E-01      0.000000000000E+00
     2      0.239988960000E+09      0.397800000000E+34      0.125170122455E+14      0.184341324881E+14      0.658449546231E+06     -0.454439429924E+06      0.659090605124E-01      0.000000000000E+00
     2      0.240619680000E+09      0.397800000000E+34      0.129306497993E+14      0.181450641023E+14      0.647835857813E+06     -0.469881633398E+06      0.659090605124E-01      0.000000000000E+00
     2      0.241250400000E+09      0.397800000000E+34      0.133375379921E+14      0.178462939928E+14      0.636873995913E+06     -0.485081083661E+06      0.659090605124E-01      0.000000000000E+00
     2      0.241881120000E+09      0.397800000000E+34      0.137374580115E+14      0.175379764440E+14      0.625568991934E+06     -0.500030345991E+06      0.659090605124E-01      0.000000000000E+00
     2      0.242511840000E+09      0.397800000000E+34      0.141301942414E+14      0.172202704181E+14      0.613926022043E+06     -0.514722058909E+06      0.659090605124E-01      0.000000000000E+00
     2      0.243142560000E+09      0.397800000000E+34      0.145155343533E+14      0.168933395086E+14      0.601950407840E+06     -0.529148936498E+06      0.659090605124E-01      0.000000000000E+00
     2      0.243773280000E+09      0.397800000000E+34      0.148932693982E+14      0.165573518920E+14      0.589647617010E+06     -0.543303770833E+06      0.659090605124E-01      0.000000000000E+00
     2      0.244404000000E+09      0.397800000000E+34      0.152631938987E+14      0.162124802787E+14      0.577023263959E+06     -0.557179434552E+06      0.659090605124E-01      0.000000000000E+00
     2      0.245034720000E+09      0.397800000000E+34      0.156251059418E+14      0.158589018610E+14      0.564083110415E+06     -0.570768883533E+06      0.659090605124E-01      0.000000000000E+00
     2      0.245665440000E+09      0.397800000000E+34      0.159788072718E+14      0.154967982610E+14      0.550833066008E+06     -0.584065159708E+06      0.659090605124E-01      0.000000000000E+00
     2      0.246296160000E+09      0.397800000000E+34      0.163241033837E+14      0.151263554754E+14      0.537279188799E+06     -0.597061393996E+06      0.659090605124E-01      0.000000000000E+00
     2      0.246926880000E+09      0.397800000000E+34      0.166608036169E+14      0.147477638187E+14      0.523427685765E+06     -0.609750809366E+06      0.659090605124E-01      0.000000000000E+00
     2      0.247557600000E+09      0.397800000000E+34      0.169887212492E+14      0.143612178653E+14      0.509284913229E+06     -0.622126724027E+06      0.659090605124E-01      0.000000000000E+00
     2      0.248188320000E+09      0.397800000000E+34      0.173076735911E+14      0.139669163883E+14      0.494857377226E+06     -0.634182554742E+06      0.659090605124E-01      0.000000000000E+00
     2      0.248819040000E+09      0.397800000000E+34      0.176174820802E+14      0.135650622972E+14      0.480151733802E+06     -0.645911820272E+06      0.659090605124E-01      0.000000000000E+00
     2      0.249449760000E+09      0.397800000000E+34      0.179179723758E+14      0.131558625725E+14      0.465174789233E+06     -0.657308144940E+06      0.659090605124E-01      0.000000000000E+00
     2      0.250080480000E+09      0.397800000000E+34      0.182089744539E+14      0.127395281994E+14      0.449933500156E+06     -0.668365262333E+06      0.659090605124E-01      0.000000000000E+00
     2      0.250711200000E+09      0.397800000000E+34      0.184903227018E+14      0.123162740974E+14      0.434434973614E+06     -0.679077019110E+06      0.659090605124E-01      0.000000000000E+00
     2      0.251341920000E+09      0.397800000000E+34      0.187618560131E+14      0.118863190488E+14      0.418686466992E+06     -0.689437378944E+06      0.659090605124E-01      0.000000000000E+00
     2      0.251972640000E+09      0.397800000000E+34      0.190234178826E+14      0.114498856243E+14      0.402695387844E+06     -0.699440426585E+06      0.659090605124E-01      0.000000000000E+00
     2      0.252603360000E+09      0.397800000000E+34      0.192748565006E+14      0.110072001058E+14      0.386469293613E+06     -0.709080372034E+06      0.659090605124E-01      0.000000000000E+00
     2      0.253234080000E+09      0.397800000000E+34      0.195160248477E+14      0.105584924069E+14      0.370015891211E+06     -0.718351554832E+06      0.659090605124E-01      0.000000000000E+00
     2      0.253864800000E+09      0.397800000000E+34      0.197467807890E+14      0.101039959903E+14      0.353343036473E+06     -0.727248448471E+06      0.659090605124E-01      0.000000000000E+00
     2      0.254495520000E+09      0.397800000000E+34      0.199669871678E+14      0.964394778287E+13      0.336458733470E+06     -0.735765664901E+06      0.659090605124E-01      0.000000000000E+00
     2      0.255126240000E+09      0.397800000000E+34      0.201765118989E+14      0.917858808734E+13      0.319371133667E+06     -0.743897959145E+06      0.659090605124E-01      0.000000000000E+00
     2      0.255756960000E+09      0.397800000000E+34      0.203752280617E+14      0.870816049147E+13      0.302088534927E+06     -0.751640234020E+06      0.659090605124E-01      0.000000000000E+00
     2      0.256387680000E+09      0.397800000000E+34      0.205630139920E+14      0.823291177407E+13      0.284619380345E+06     -0.758987544943E+06      0.659090605124E-01      0.000000000000E+00
     2      0.257018400000E+09      0.397800000000E+34      0.207397533737E+14      0.775309180793E+13      0.266972256912E+06     -0.765935104830E+06      0.659090605124E-01      0.000000000000E+00
     2      0.257649120000E+09      0.397800000000E+34      0.209053353291E+14      0.726895345972E+13      0.249155893990E+06     -0.772478289084E+06      0.659090605124E-01      0.000000000000E+00
     2      0.258279840000E+09      0.397800000000E+34      0.210596545086E+14      0.678075248675E+13      0.231179161603E+06     -0.778612640649E+06      0.659090605124E-01      0.000000000000E+00
     2      0.258910560000E+09      0.397800000000E+34      0.212026111790E+14      0.628874743044E+13      0.213051068527E+06     -0.784333875142E+06      0.659090605124E-01      0.000000000000E+00
     2      0.259541280000E+09      0.397800000000E+34      0.213341113110E+14      0.579319950661E+13      0.194780760172E+06     -0.789637886049E+06      0.659090605124E-01      0.000000000000E+00
     2      0.260172000000E+09      0.397800000000E+34      0.214540666643E+14      0.529437249250E+13      0.176377516257E+06     -0.794520749965E+06      0.659090605124E-01      0.000000000000E+00
     2      0.260802720000E+09      0.397800000000E+34      0.215623948728E+14      0.479253261039E+13      0.157850748258E+06     -0.798978731894E+06      0.659090605124E-01      0.000000000000E+00
     2      0.261433440000E+09      0.397800000000E+34      0.216590195267E+14      0.428794840799E+13      0.139209996638E+06     -0.803008290576E+06      0.659090605124E-01      0.000000000000E+00
     2      0.262064160000E+09      0.397800000000E+34      0.217438702534E+14      0.378089063534E+13      0.120464927829E+06     -0.806606083851E+06      0.659090605124E-01      0.000000000000E+00
     2      0.262694880000E+09      0.397800000000E+34      0.218168827969E+14      0.327163211846E+13      0.101625330991E+06     -0.809768974030E+06      0.659090605124E-01      0.000000000000E+00
     2      0.263325600000E+09      0.397800000000E+34      0.218779990942E+14      0.276044762944E+13      0.827011145152E+05     -0.812494033284E+06      0.659090605124E-01      0.000000000000E+00
     2      0.263956320000E+09      0.397800000000E+34      0.219271673501E+14      0.224761375333E+13      0.637023022748E+05     -0.814778549026E+06      0.659090605124E-01      0.000000000000E+00
     2      0.264587040000E+09      0.397800000000E+34      0.219643421092E+14      0.173340875147E+13      0.446390296269E+05     -0.816620029275E+06      0.659090605124E-01      0.000000000000E+00
     2      0.265217760000E+09      0.397800000000E+34      0.219894843262E+14      0.121811242153E+13      0.255215391473E+05     -0.818016208000E+06      0.659090605124E-01      0.000000000000E+00
     2      0.265848480000E+09      0.397800000000E+34      0.220025614320E+14      0.702005954137E+12      0.636017610289E+04     -0.818965050421E+06      0.659090605124E-01      0.000000000000E+00
     2      0.266479200000E+09      0.397800000000E+34      0.220035473982E+14      0.185371786232E+12     -0.128346163451E+05     -0.819464758258E+06      0.659090605124E-01      0.000000000000E+00
     2      0.267109920000E+09      0.397800000000E+34      0.219924227979E+14     -0.331506548948E+12     -0.320523022095E+05     -0.819513774917E+06      0.659090605124E-01      0.000000000000E+00
     2      0.267740640000E+09      0.397800000000E+34      0.219691748637E+14     -0.848344575107E+12     -0.512822580197E+05     -0.819110790596E+06      0.659090605124E-01      0.000000000000E+00
     2      0.268371360000E+09      0.397800000000E+34      0.219337975415E+14     -0.136485702934E+13     -0.705137784395E+05     -0.818254747302E+06      0.659090605124E-01      0.000000000000E+00
     2      0.269002080000E+09      0.397800000000E+34      0.218862915416E+14     -0.188075802173E+13     -0.897360821620E+05     -0.816944843757E+06      0.659090605124E-01      0.000000000000E+00
     2      0.269632800000E+09      0.397800000000E+34      0.218266643856E+14     -0.239576119802E+13     -0.108938318082E+06     -0.815180540182E+06      0.659090605124E-01      0.000000000000E+00
     2      0.270263520000E+09      0.397800000000E+34      0.217549304491E+14     -0.290957990530E+13     -0.128109571744E+06     -0.812961562950E+06      0.659090605124E-01      0.000000000000E+00
     2      0.270894240000E+09      0.397800000000E+34      0.216711110013E+14     -0.342192736059E+13     -0.147238872067E+06     -0.810287909082E+06      0.659090605124E-01      0.000000000000E+00
     2      0.271524960000E+09      0.397800000000E+34      0.215752342388E+14     -0.393251682218E+13     -0.166315198344E+06     -0.807159850578E+06      0.659090605124E-01      0.000000000000E+00
     2      0.272155680000E+09      0.397800000000E+34      0.214673353163E+14     -0.444106176382E+13     -0.185327487506E+06     -0.803577938563E+06      0.659090605124E-01      0.000000000000E+00
     2      0.272786400000E+09      0.397800000000E+34      0.213474563720E+14     -0.494727605132E+13     -0.204264641664E+06     -0.799543007241E+06      0.659090605124E-01      0.000000000000E+00
     2      0.273417120000E+09      0.397800000000E+34      0.212156465483E+14     -0.545087412173E+13     -0.223115535902E+06     -0.795056177624E+06      0.659090605124E-01      0.000000000000E+00
     2      0.274047840000E+09      0.397800000000E+34      0.210719620076E+14     -0.595157116477E+13     -0.241869026332E+06     -0.790118861042E+06      0.659090605124E-01      0.000000000000E+00
     2      0.274678560000E+09      0.397800000000E+34      0.209164659432E+14     -0.644908330652E+13     -0.260513958404E+06     -0.784732762399E+06      0.659090605124E-01      0.000000000000E+00
     2      0.275309280000E+09      0.397800000000E+34      0.207492285841E+14     -0.694312779499E+13     -0.279039175450E+06     -0.778899883170E+06      0.659090605124E-01      0.000000000000E+00
     2      0.275940000000E+09      0.397800000000E+34      0.205703271956E+14     -0.743342318766E+13     -0.297433527465E+06     -0.772622524120E+06      0.659090605124E-01      0.000000000000E+00
     2      0.276570720000E+09      0.397800000000E+34      0.203798460734E+14     -0.791968954065E+13     -0.315685880123E+06     -0.765903287731E+06      0.659090605124E-01      0.000000000000E+00
     2      0.277201440000E+09      0.397800000000E+34      0.201778765322E+14     -0.840164859934E+13     -0.333785123989E+06     -0.758745080325E+06      0.659090605124E-01      0.000000000000E+00
     2      0.277832160000E+09      0.397800000000E+34      0.199645168886E+14     -0.887902399031E+13     -0.351720183956E+06     -0.751151113851E+06      0.659090605124E-01      0.000000000000E+00
     2      0.278462880000E+09      0.397800000000E+34      0.197398724381E+14     -0.935154141434E+13     -0.369480028856E+06     -0.743124907352E+06      0.659090605124E-01      0.000000000000E+00
     2      0.279093600000E+09      0.397800000000E+34      0.195040554254E+14     -0.981892884033E+13     -0.387053681256E+06     -0.734670288069E+06      0.659090605124E-01      0.000000000000E+00
     2      0.279724320000E+09      0.397800000000E+34      0.192571850096E+14     -0.102809166998E+14     -0.404430227421E+06     -0.725791392181E+06      0.659090605124E-01      0.000000000000E+00
     2      0.280355040000E+09      0.397800000000E+34      0.189993872218E+14     -0.107372380817E+14     -0.421598827417E+06     -0.716492665178E+06      0.659090605124E-01      0.000000000000E+00
     2      0.280985760000E+09      0.397800000000E+34      0.187307949174E+14     -0.111876289277E+14     -0.438548725354E+06     -0.706778861828E+06      0.659090605124E-01      0.000000000000E+00
     2      0.281616480000E+09      0.397800000000E+34      0.184515477211E+14     -0.116318282273E+14     -0.455269259743E+06     -0.696655045757E+06      0.659090605124E-01      0.000000000000E+00
     2      0.282247200000E+09      0.397800000000E+34      0.181617919660E+14     -0.120695782119E+14     -0.471749873942E+06     -0.686126588609E+06      0.659090605124E-01      0.000000000000E+00
     2      0.282877920000E+09      0.397800000000E+34      0.178616806257E+14     -0.125006245497E+14     -0.487980126694E+06     -0.675199168789E+06      0.659090605124E-01      0.000000000000E+00
     2      0.283508640000E+09      0.397800000000E+34      0.175513732399E+14     -0.129247165385E+14     -0.503949702716E+06     -0.663878769769E+06      0.659090605124E-01      0.000000000000E+00
     2      0.284139360000E+09      0.397800000000E+34      0.172310358332E+14     -0.133416072977E+14     -0.519648423327E+06     -0.652171677966E+06      0.659090605124E-01      0.000000000000E+00
     2      0.284770080000E+09      0.397800000000E+34      0.169008408272E+14     -0.137510539594E+14     -0.535066257096E+06     -0.640084480163E+06      0.659090605124E-01      0.000000000000E+00
     2      0.285400800000E+09      0.397800000000E+34      0.165609669463E+14     -0.141528178568E+14     -0.550193330486E+06     -0.627624060485E+06      0.659090605124E-01      0.000000000000E+00
     2      0.286031520000E+09      0.397800000000E+34      0.162115991158E+14     -0.145466647119E+14     -0.565019938473E+06     -0.614797596923E+06      0.659090605124E-01      0.000000000000E+00
     2      0.286662240000E+09      0.397800000000E+34      0.158529283548E+14     -0.149323648195E+14     -0.579536555115E+06     -0.601612557389E+06      0.659090605124E-01      0.000000000000E+00
     2      0.287292960000E+09      0.397800000000E+34      0.154851516608E+14     -0.153096932301E+14     -0.593733844050E+06     -0.588076695317E+06      0.659090605124E-01      0.000000000000E+00
     2      0.287923680000E+09      0.397800000000E+34      0.151084718888E+14     -0.156784299287E+14     -0.607602668900E+06     -0.574198044803E+06      0.659090605124E-01      0.000000000000E+00
     2      0.288554400000E+09      0.397800000000E+34      0.147230976236E+14     -0.160383600113E+14     -0.621134103556E+06     -0.559984915278E+06      0.659090605124E-01      0.000000000000E+00
     2      0.289185120000E+09      0.397800000000E+34      0.143292430457E+14     -0.163892738575E+14     -0.634319442320E+06     -0.545445885722E+06      0.659090605124E-01      0.000000000000E+00
     2      0.289815840000E+09      0.397800000000E+34      0.139271277903E+14     -0.167309672997E+14     -0.647150209881E+06     -0.530589798431E+06      0.659090605124E-01      0.000000000000E+00
     2      0.290446560000E+09      0.397800000000E+34      0.135169768007E+14     -0.170632417878E+14     -0.659618171099E+06     -0.515425752314E+06      0.659090605124E-01      0.000000000000E+00
     2      0.291077280000E+09      0.397800000000E+34      0.130990201753E+14     -0.173859045506E+14     -0.671715340579E+06     -0.499963095765E+06      0.659090605124E-01      0.000000000000E+00
     2      0.291708000000E+09      0.397800000000E+34      0.126734930086E+14     -0.176987687512E+14     -0.683433992003E+06     -0.484211419082E+06      0.659090605124E-01      0.000000000000E+00
     2      0.292338720000E+09      0.397800000000E+34      0.122406352261E+14     -0.180016536389E+14     -0.694766667197E+06     -0.468180546462E+06      0.659090605124E-01      0.000000000000E+00
     2      0.292969440000E+09      0.397800000000E+34      0.118006914143E+14     -0.182943846952E+14     -0.705706184924E+06     -0.451880527578E+06      0.659090605124E-01      0.000000000000E+00
     2      0.293600160000E+09      0.397800000000E+34      0.113539106441E+14     -0.185767937745E+14     -0.716245649356E+06     -0.435321628746E+06      0.659090605124E-01      0.000000000000E+00
     2      0.294230880000E+09      0.397800000000E+34      0.109005462901E+14     -0.188487192396E+14     -0.726378458229E+06     -0.418514323704E+06      0.659090605124E-01      0.000000000000E+00
     2      0.294861600000E+09      0.397800000000E+34      0.104408558434E+14     -0.191100060908E+14     -0.736098310635E+06     -0.401469284002E+06      0.659090605124E-01      0.000000000000E+00
     2      0.295492320000E+09      0.397800000000E+34      0.997510072123E+13     -0.193605060892E+14     -0.745399214454E+06     -0.384197369038E+06      0.659090605124E-01      0.000000000000E+00
     2      0.296123040000E+09      0.397800000000E+34      0.950354607038E+13     -0.196000778736E+14     -0.754275493382E+06     -0.366709615744E+06      0.659090605124E-01      0.000000000000E+00
     2      0.296753760000E+09      0.397800000000E+34      0.902646056732E+13     -0.198285870706E+14     -0.762721793559E+06     -0.349017227941E+06      0.659090605124E-01      0.000000000000E+00
     2      0.297384480000E+09      0.397800000000E+34      0.854411621370E+13     -0.200459063985E+14     -0.770733089760E+06     -0.331131565392E+06      0.659090605124E-01      0.000000000000E+00
     2      0.298015200000E+09      0.397800000000E+34      0.805678812816E+13     -0.202519157636E+14     -0.778304691145E+06     -0.313064132562E+06      0.659090605124E-01      0.000000000000E+00
     2      0.298645920000E+09      0.397800000000E+34      0.756475433460E+13     -0.204465023496E+14     -0.785432246549E+06     -0.294826567115E+06      0.659090605124E-01      0.000000000000E+00
     2      0.299276640000E+09      0.397800000000E+34      0.706829554713E+13     -0.206295607003E+14     -0.792111749284E+06     -0.276430628164E+06      0.659090605124E-01      0.000000000000E+00
     2      0.299907360000E+09      0.397800000000E+34      0.656769495216E+13     -0.208009927936E+14     -0.798339541473E+06     -0.257888184310E+06      0.659090605124E-01      0.000000000000E+00
     2      0.300538080000E+09      0.397800000000E+34      0.606323798768E+13     -0.209607081091E+14     -0.804112317859E+06     -0.239211201473E+06      0.659090605124E-01      0.000000000000E+00
     2      0.301168800000E+09      0.397800000000E+34      0.555521212042E+13     -0.211086236876E+14     -0.809427129123E+06     -0.220411730568E+06      0.659090605124E-01      0.000000000000E+00
     2      0.301799520000E+09      0.397800000000E+34      0.504390662079E+13     -0.212446641823E+14     -0.814281384667E+06     -0.201501895021E+06      0.659090605124E-01      0.000000000000E+00
     2      0.302430240000E+09      0.397800000000E+34      0.452961233635E+13     -0.213687619029E+14     -0.818672854877E+06     -0.182493878180E+06      0.659090605124E-01      0.000000000000E+00
     2      0.303060960000E+09      0.397800000000E+34      0.401262146376E+13     -0.214808568516E+14     -0.822599672849E+06     -0.163399910630E+06      0.659090605124E-01      0.000000000000E+00
     2      0.303691680000E+09      0.397800000000E+34      0.349322731983E+13     -0.215808967503E+14     -0.826060335580E+06     -0.144232257439E+06      0.659090605124E-01      0.000000000000E+00
     2      0.304322400000E+09      0.397800000000E+34      0.297172411188E+13     -0.216688370608E+14     -0.829053704611E+06     -0.125003205377E+06      0.659090605124E-01      0.000000000000E+00
     2      0.304953120000E+09      0.397800000000E+34      0.244840670778E+13     -0.217446409963E+14     -0.831579006140E+06     -0.105725050116E+06      0.659090605124E-01      0.000000000000E+00
     2      0.305583840000E+09      0.397800000000E+34      0.192357040599E+13     -0.218082795249E+14     -0.833635830577E+06     -0.864100834555E+05      0.659090605124E-01      0.000000000000E+00
     2      0.306214560000E+09      0.397800000000E+34      0.139751070598E+13     -0.218597313656E+14     -0.835224131577E+06     -0.670705805878E+05      0.659090605124E-01      0.000000000000E+00
     2      0.306845280000E+09      0.397800000000E+34      0.870523079350E+12     -0.218989829750E+14     -0.836344224523E+06     -0.477187874381E+05      0.659090605124E-01      0.000000000000E+00
     2      0.307476000000E+09      0.397800000000E+34      0.342902741969E+12     -0.219260285277E+14     -0.836996784489E+06     -0.283669081035E+05      0.659090605124E-01      0.000000000000E+00
     2      0.308106720000E+09      0.397800000000E+34     -0.185055572498E+12     -0.219408698876E+14     -0.837182843669E+06     -0.902709241745E+04      0.659090605124E-01      0.000000000000E+00
     2      0.308737440000E+09      0.397800000000E+34     -0.713057837367E+12     -0.219435165716E+14     -0.836903788301E+06      0.102885763349E+05      0.659090605124E-01      0.000000000000E+00
     2      0.309368160000E+09      0.397800000000E+34     -0.124081095570E+13     -0.219339857058E+14     -0.836161355077E+06      0.295680935240E+05      0.659090605124E-01      0.000000000000E+00
     2      0.309998880000E+09      0.397800000000E+34     -0.176802298069E+13     -0.219123019743E+14     -0.834957627062E+06      0.487995450828E+05      0.659090605124E-01      0.000000000000E+00
     2      0.310629600000E+09      0.397800000000E+34     -0.229440333348E+13     -0.218784975596E+14     -0.833295029129E+06      0.679711191879E+05      0.659090605124E-01      0.000000000000E+00
     2      0.311260320000E+09      0.397800000000E+34     -0.281966301791E+13     -0.218326120769E+14     -0.831176322930E+06      0.870711176931E+05      0.659090605124E-01      0.000000000000E+00
     2      0.311891040000E+09      0.397800000000E+34     -0.334351483213E+13     -0.217746925005E+14     -0.828604601408E+06      0.106087967293E+06      0.659090605124E-01      0.000000000000E+00
     2      0.312521760000E+09      0.397800000000E+34     -0.386567357661E+13     -0.217047930831E+14     -0.825583282874E+06      0.125010230398E+06      0.659090605124E-01      0.000000000000E+00
     2      0.313152480000E+09      0.397800000000E+34     -0.438585625838E+13     -0.216229752685E+14     -0.822116104668E+06      0.143826615691E+06      0.659090605124E-01      0.000000000000E+00
     2      0.313783200000E+09      0.397800000000E+34     -0.490378229119E+13     -0.215293075983E+14     -0.818207116414E+06      0.162525988368E+06      0.659090605124E-01      0.000000000000E+00
     2      0.314413920000E+09      0.397800000000E+34     -0.541917369140E+13     -0.214238656108E+14     -0.813860672891E+06      0.181097380018E+06      0.659090605124E-01      0.000000000000E+00
     2      0.315044640000E+09      0.397800000000E+34     -0.593175526923E+13     -0.213067317352E+14     -0.809081426553E+06      0.199529998150E+06      0.659090605124E-01      0.000000000000E+00
     2      0.315675360000E+09      0.397800000000E+34     -0.644125481533E+13     -0.211779951786E+14     -0.803874319690E+06      0.217813235335E+06      0.659090605124E-01      0.000000000000E+00
