 # Tag              Time [sec]                Mass [g]             posx [code]             posy [code]             velx [code]             vely [code]             accx [code]             accy [code]
     1      0.315360000000E+06      0.198900000000E+34     -0.299196000000E+14      0.626285067377E+12      0.415701626464E+05      0.198593692091E+07      0.131818121025E+00      0.000000000000E+00
     1      0.946080000000E+06      0.198900000000E+34     -0.298802799119E+14      0.187858096944E+13      0.124610395605E+06      0.198332930482E+07      0.131818121025E+00      0.000000000000E+00
     1      0.157680000000E+07      0.198900000000E+34     -0.297886190998E+14      0.312868493159E+13      0.207396090506E+06      0.197725439189E+07      0.131818121025E+00      0.000000000000E+00
     1      0.220752000000E+07      0.198900000000E+34     -0.296448009860E+14      0.437441246594E+13      0.289782257844E+06      0.196772897448E+07      0.131818121025E+00      0.000000000000E+00
     1      0.283824000000E+07      0.198900000000E+34     -0.294491003572E+14      0.561359064623E+13      0.371624505040E+06      0.195477600675E+07      0.131818121025E+00      0.000000000000E+00
     1      0.346896000000E+07      0.198900000000E+34     -0.292018829446E+14      0.684406199857E+13      0.452779315452E+06      0.193842462851E+07      0.131818121025E+00      0.000000000000E+00
     1      0.409968000000E+07      0.198900000000E+34     -0.289036048264E+14      0.806368840486E+13      0.533104334698E+06      0.191871017446E+07      0.131818121025E+00      0.000000000000E+00
     1      0.473040000000E+07      0.198900000000E+34     -0.285548116486E+14      0.927035500966E+13      0.612458663354E+06      0.189567416769E+07      0.131818121025E+00      0.000000000000E+00
     1      0.536112000000E+07      0.198900000000E+34     -0.281561376609E+14      0.104619741204E+14      0.690703154980E+06      0.186936429677E+07      0.131818121025E+00      0.000000000000E+00
     1      0.599184000000E+07      0.198900000000E+34     -0.277083045631E+14      0.116364890904E+14      0.767700718336E+06      0.183983437537E+07      0.131818121025E+00      0.000000000000E+00
     1      0.662256000000E+07      0.198900000000E+34     -0.272121201615E+14      0.127918781735E+14      0.843316622531E+06      0.180714428389E+07      0.131818121025E+00      0.000000000000E+00
     1      0.725328000000E+07      0.198900000000E+34     -0.266684768309E+14      0.139261583394E+14      0.917418803783E+06      0.177135989229E+07      0.131818121025E+00      0.000000000000E+00
     1      0.788400000000E+07      0.198900000000E+34     -0.260783497850E+14      0.150373890365E+14      0.989878172367E+06      0.173255296375E+07      0.131818121025E+00      0.000000000000E+00
     1      0.851472000000E+07      0.198900000000E+34     -0.254427951515E+14      0.161236758917E+14      0.106056891827E+07      0.169080103868E+07      0.131818121025E+00      0.000000000000E+00
     1      0.914544000000E+07      0.198900000000E+34     -0.247629478561E+14      0.171831743333E+14      0.112936881401E+07      0.164618729890E+07      0.131818121025E+00      0.000000000000E+00
     1      0.977616000000E+07      0.198900000000E+34     -0.240400193155E+14      0.182140931259E+14      0.119615951302E+07      0.159880041171E+07      0.131818121025E+00      0.000000000000E+00
     1      0.104068800000E+08      0.198900000000E+34     -0.232752949433E+14      0.192146978024E+14      0.126082684194E+07      0.154873435407E+07      0.131818121025E+00      0.000000000000E+00
     1      0.110376000000E+08      0.198900000000E+34     -0.224701314727E+14      0.201833139838E+14      0.132326108527E+07      0.149608821695E+07      0.131818121025E+00      0.000000000000E+00
     1      0.116683200000E+08      0.198900000000E+34     -0.216259541008E+14      0.211183305707E+14      0.138335726058E+07      0.144096599014E+07      0.131818121025E+00      0.000000000000E+00
     1      0.122990400000E+08      0.198900000000E+34     -0.207442534617E+14      0.220182027975E+14      0.144101538281E+07      0.138347632812E+07      0.131818121025E+00      0.000000000000E+00
     1      0.129297600000E+08      0.198900000000E+34     -0.198265824339E+14      0.228814551350E+14      0.149614071586E+07      0.132373229757E+07      0.131818121025E+00      0.000000000000E+00
     1      0.135604800000E+08      0.198900000000E+34     -0.188745527918E+14      0.237066840317E+14      0.154864401010E+07      0.126185110731E+07      0.131818121025E+00      0.000000000000E+00
     1      0.141912000000E+08      0.198900000000E+34     -0.178898317098E+14      0.244925604815E+14      0.159844172413E+07      0.119795382160E+07      0.131818121025E+00      0.000000000000E+00
     1      0.148219200000E+08      0.198900000000E+34     -0.168741381287E+14      0.252378324084E+14      0.164545622947E+07      0.113216505800E+07      0.131818121025E+00      0.000000000000E+00
     1      0.154526400000E+08      0.198900000000E+34     -0.158292389965E+14      0.259413268583E+14      0.168961599675E+07      0.106461267091E+07      0.131818121025E+00      0.000000000000E+00
     1      0.160833600000E+08      0.198900000000E+34     -0.147569453945E+14      0.266019519893E+14      0.173085576232E+07      0.995427422179E+06      0.131818121025E+00      0.000000000000E+00
     1      0.167140800000E+08      0.198900000000E+34     -0.136591085612E+14      0.272186988517E+14      0.176911667398E+07      0.924742640344E+06      0.131818121025E+00      0.000000000000E+00
     1      0.173448000000E+08      0.198900000000E+34     -0.125376158286E+14      0.277906429523E+14      0.180434641504E+07      0.852693870008E+06      0.131818121025E+00      0.000000000000E+00
     1      0.179755200000E+08      0.198900000000E+34     -0.113943864826E+14      0.283169455959E+14      0.183649930571E+07      0.779418513077E+06      0.131818121025E+00      0.000000000000E+00
     1      0.186062400000E+08      0.198900000000E+34     -0.102313675642E+14      0.287968549988E+14      0.186553638136E+07      0.705055463612E+06      0.131818121025E+00      0.000000000000E+00
     1      0.192369600000E+08      0.198900000000E+34     -0.905052962446E+13      0.292297071727E+14      0.189142544696E+07      0.629744738121E+06      0.131818121025E+00      0.000000000000E+00
     1      0.198676800000E+08      0.198900000000E+34     -0.785386244892E+13      0.296149265731E+14      0.191414110741E+07      0.553627103167E+06      0.131818121025E+00      0.000000000000E+00
     1      0.204984000000E+08      0.198900000000E+34     -0.664337076690E+13      0.299520265140E+14      0.193366477364E+07      0.476843702168E+06      0.131818121025E+00      0.000000000000E+00
     1      0.211291200000E+08      0.198900000000E+34     -0.542106996072E+13      0.302406093470E+14      0.194998464452E+07      0.399535683305E+06      0.131818121025E+00      0.000000000000E+00
     1      0.217598400000E+08      0.198900000000E+34     -0.418898179012E+13      0.304803664053E+14      0.196309566459E+07      0.321843830421E+06      0.131818121025E+00      0.000000000000E+00
     1      0.223905600000E+08      0.198900000000E+34     -0.294913014709E+13      0.306710777170E+14      0.197299945818E+07      0.243908198785E+06      0.131818121025E+00      0.000000000000E+00
     1      0.230212800000E+08      0.198900000000E+34     -0.170353685594E+13      0.308126114883E+14      0.197970424033E+07      0.165867757522E+06      0.131818121025E+00      0.000000000000E+00
     1      0.236520000000E+08      0.198900000000E+34     -0.454217533130E+12      0.309049233633E+14      0.198322470516E+07      0.878600404718E+05      0.131818121025E+00      0.000000000000E+00
     1      0.242827200000E+08      0.198900000000E+34      0.796822479043E+12      0.309480554650E+14      0.198358189267E+07      0.100208071562E+05      0.131818121025E+00      0.000000000000E+00
     1      0.249134400000E+08      0.198900000000E+34      0.204759209142E+13      0.309421352237E+14      0.198080303476E+07     -0.675162845712E+05      0.131818121025E+00      0.000000000000E+00
     1      0.255441600000E+08      0.198900000000E+34      0.329611834676E+13      0.308873740016E+14      0.197492138177E+07     -0.144619992715E+06      0.131818121025E+00      0.000000000000E+00
     1      0.261748800000E+08      0.198900000000E+34      0.454045018610E+13      0.307840655213E+14      0.196597601062E+07     -0.221161790812E+06      0.131818121025E+00      0.000000000000E+00
     1      0.268056000000E+08      0.198900000000E+34      0.577866209144E+13      0.306325841073E+14      0.195401161600E+07     -0.297016151851E+06      0.131818121025E+00      0.000000000000E+00
     1      0.274363200000E+08      0.198900000000E+34      0.700885759419E+13      0.304333827519E+14      0.193907828592E+07     -0.372060815374E+06      0.131818121025E+00      0.000000000000E+00
     1      0.280670400000E+08      0.198900000000E+34      0.822917263971E+13      0.301869910143E+14      0.192123126323E+07     -0.446177036771E+06      0.131818121025E+00      0.000000000000E+00
     1      0.286977600000E+08      0.198900000000E+34      0.943777879951E+13      0.298940127665E+14      0.190053069458E+07     -0.519249818013E+06      0.131818121025E+00      0.000000000000E+00
     1      0.293284800000E+08      0.198900000000E+34      0.106328863232E+14      0.295551237958E+14      0.187704136847E+07     -0.591168119142E+06      0.131818121025E+00      0.000000000000E+00
     1      0.299592000000E+08      0.198900000000E+34      0.118127470239E+14      0.291710692775E+14      0.185083244402E+07     -0.661825050038E+06      0.131818121025E+00      0.000000000000E+00
     1      0.305899200000E+08      0.198900000000E+34      0.129756569910E+14      0.287426611294E+14      0.182197717201E+07     -0.731118042113E+06      0.131818121025E+00      0.000000000000E+00
     1      0.312206400000E+08      0.198900000000E+34      0.141199591262E+14      0.282707752619E+14      0.179055260993E+07     -0.798948999739E+06      0.131818121025E+00      0.000000000000E+00
     1      0.318513600000E+08      0.198900000000E+34      0.152440454990E+14      0.277563487349E+14      0.175663933264E+07     -0.865224431355E+06      0.131818121025E+00      0.000000000000E+00
     1      0.324820800000E+08      0.198900000000E+34      0.163463595191E+14      0.272003768359E+14      0.172032114013E+07     -0.929855560340E+06      0.131818121025E+00      0.000000000000E+00
     1      0.331128000000E+08      0.198900000000E+34      0.174253979246E+14      0.266039100908E+14      0.168168476399E+07     -0.992758415875E+06      0.131818121025E+00      0.000000000000E+00
     1      0.337435200000E+08      0.198900000000E+34      0.184797125842E+14      0.259680512214E+14      0.164081957407E+07     -0.105385390413E+07      0.131818121025E+00      0.000000000000E+00
     1      0.343742400000E+08      0.198900000000E+34      0.195079121155E+14      0.252939520596E+14      0.159781728675E+07     -0.111306786025E+07      0.131818121025E+00      0.000000000000E+00
     1      0.350049600000E+08      0.198900000000E+34      0.205086633194E+14      0.245828104334E+14      0.155277167604E+07     -0.117033108167E+07      0.131818121025E+00      0.000000000000E+00
     1      0.356356800000E+08      0.198900000000E+34      0.214806924323E+14      0.238358670334E+14      0.150577828901E+07     -0.122557934347E+07      0.131818121025E+00      0.000000000000E+00
     1      0.362664000000E+08      0.198900000000E+34      0.224227862008E+14      0.230544022733E+14      0.145693416644E+07     -0.127875339649E+07      0.131818121025E+00      0.000000000000E+00
     1      0.368971200000E+08      0.198900000000E+34      0.233337927800E+14      0.222397331536E+14      0.140633756994E+07     -0.132979894894E+07      0.131818121025E+00      0.000000000000E+00
     1      0.375278400000E+08      0.198900000000E+34      0.242126224615E+14      0.213932101398E+14      0.135408771644E+07     -0.137866663261E+07      0.131818121025E+00      0.000000000000E+00
     1      0.381585600000E+08      0.198900000000E+34      0.250582482351E+14      0.205162140640E+14      0.130028452103E+07     -0.142531195429E+07      0.131818121025E+00      0.000000000000E+00
     1      0.387892800000E+08      0.198900000000E+34      0.258697061896E+14      0.196101530596E+14      0.124502834871E+07     -0.146969523368E+07      0.131818121025E+00      0.000000000000E+00
     1      0.394200000000E+08      0.198900000000E+34      0.266460957586E+14      0.186764595366E+14      0.118841977594E+07     -0.151178152861E+07      0.131818121025E+00      0.000000000000E+00
     1      0.400507200000E+08      0.198900000000E+34      0.273865798173E+14      0.177165872069E+14      0.113055936245E+07     -0.155154054861E+07      0.131818121025E+00      0.000000000000E+00
     1      0.406814400000E+08      0.198900000000E+34      0.280903846375E+14      0.167320081648E+14      0.107154743383E+07     -0.158894655795E+07      0.131818121025E+00      0.000000000000E+00
     1      0.413121600000E+08      0.198900000000E+34      0.287567997067E+14      0.157242100310E+14      0.101148387521E+07     -0.162397826905E+07      0.131818121025E+00      0.000000000000E+00
     1      0.419428800000E+08      0.198900000000E+34      0.293851774193E+14      0.146946931646E+14      0.950467936412E+06     -0.165661872744E+07      0.131818121025E+00      0.000000000000E+00
     1      0.425736000000E+08      0.198900000000E+34      0.299749326464E+14      0.136449679496E+14      0.888598048662E+06     -0.168685518919E+07      0.131818121025E+00      0.000000000000E+00
     1      0.432043200000E+08      0.198900000000E+34      0.305255421922E+14      0.125765521588E+14      0.825971653120E+06     -0.171467899172E+07      0.131818121025E+00      0.000000000000E+00
     1      0.438350400000E+08      0.198900000000E+34      0.310365441436E+14      0.114909684012E+14      0.762685041123E+06     -0.174008541921E+07      0.131818121025E+00      0.000000000000E+00
     1      0.444657600000E+08      0.198900000000E+34      0.315075371213E+14      0.103897416541E+14      0.698833206188E+06     -0.176307356325E+07      0.131818121025E+00      0.000000000000E+00
     1      0.450964800000E+08      0.198900000000E+34      0.319381794396E+14      0.927439688424E+13      0.634509707669E+06     -0.178364617982E+07      0.131818121025E+00      0.000000000000E+00
     1      0.457272000000E+08      0.198900000000E+34      0.323281881811E+14      0.814645675953E+13      0.569806545875E+06     -0.180180954338E+07      0.131818121025E+00      0.000000000000E+00
     1      0.463579200000E+08      0.198900000000E+34      0.326773381955E+14      0.700743945315E+13      0.504814048472E+06     -0.181757329887E+07      0.131818121025E+00      0.000000000000E+00
     1      0.469886400000E+08      0.198900000000E+34      0.329854610278E+14      0.585885654120E+13      0.439620767869E+06     -0.183095031244E+07      0.131818121025E+00      0.000000000000E+00
     1      0.476193600000E+08      0.198900000000E+34      0.332524437840E+14      0.470221099464E+13      0.374313389310E+06     -0.184195652156E+07      0.131818121025E+00      0.000000000000E+00
     1      0.482500800000E+08      0.198900000000E+34      0.334782279396E+14      0.353899526580E+13      0.308976649308E+06     -0.185061078519E+07      0.131818121025E+00      0.000000000000E+00
     1      0.488808000000E+08      0.198900000000E+34      0.336628080996E+14      0.237068946925E+13      0.243693264046E+06     -0.185693473468E+07      0.131818121025E+00      0.000000000000E+00
     1      0.495115200000E+08      0.198900000000E+34      0.338062307132E+14      0.119875965664E+13      0.178543867361E+06     -0.186095262585E+07      0.131818121025E+00      0.000000000000E+00
     1      0.501422400000E+08      0.198900000000E+34      0.339085927526E+14      0.246561844709E+11      0.113606957854E+06     -0.186269119292E+07      0.131818121025E+00      0.000000000000E+00
     1      0.507729600000E+08      0.198900000000E+34      0.339700403583E+14     -0.115018782630E+13      0.489588547171E+05     -0.186217950461E+07      0.131818121025E+00      0.000000000000E+00
     1      0.514036800000E+08      0.198900000000E+34      0.339907674590E+14     -0.232435794028E+13     -0.153263381986E+05     -0.185944882288E+07      0.131818121025E+00      0.000000000000E+00
     1      0.520344000000E+08      0.198900000000E+34      0.339710143692E+14     -0.349645976904E+13     -0.791767605263E+05     -0.185453246474E+07      0.131818121025E+00      0.000000000000E+00
     1      0.526651200000E+08      0.198900000000E+34      0.339110663709E+14     -0.466512024587E+13     -0.142522816204E+06     -0.184746566736E+07      0.131818121025E+00      0.000000000000E+00
     1      0.532958400000E+08      0.198900000000E+34      0.338112522829E+14     -0.582898881601E+13     -0.205297187445E+06     -0.183828545675E+07      0.131818121025E+00      0.000000000000E+00
     1      0.539265600000E+08      0.198900000000E+34      0.336719430224E+14     -0.698673854470E+13     -0.267434842316E+06     -0.182703052044E+07      0.131818121025E+00      0.000000000000E+00
     1      0.545572800000E+08      0.198900000000E+34      0.334935501630E+14     -0.813706714546E+13     -0.328873036390E+06     -0.181374108408E+07      0.131818121025E+00      0.000000000000E+00
     1      0.551880000000E+08      0.198900000000E+34      0.332765244917E+14     -0.927869793131E+13     -0.389551308923E+06     -0.179845879233E+07      0.131818121025E+00      0.000000000000E+00
     1      0.558187200000E+08      0.198900000000E+34      0.330213545706E+14     -0.104103806915E+14     -0.449411473998E+06     -0.178122659406E+07      0.131818121025E+00      0.000000000000E+00
     1      0.564494400000E+08      0.198900000000E+34      0.327285653034E+14     -0.115308924964E+14     -0.508397607069E+06     -0.176208863209E+07      0.131818121025E+00      0.000000000000E+00
     1      0.570801600000E+08      0.198900000000E+34      0.323987165119E+14     -0.126390384340E+14     -0.566456027327E+06     -0.174109013732E+07      0.131818121025E+00      0.000000000000E+00
     1      0.577108800000E+08      0.198900000000E+34      0.320324015244E+14     -0.137336522795E+14     -0.623535276280E+06     -0.171827732749E+07      0.131818121025E+00      0.000000000000E+00
     1      0.583416000000E+08      0.198900000000E+34      0.316302457772E+14     -0.148135971031E+14     -0.679586092960E+06     -0.169369731048E+07      0.131818121025E+00      0.000000000000E+00
     1      0.589723200000E+08      0.198900000000E+34      0.311929054336E+14     -0.158777658158E+14     -0.734561386100E+06     -0.166739799220E+07      0.131818121025E+00      0.000000000000E+00
     1      0.596030400000E+08      0.198900000000E+34      0.307210660195E+14     -0.169250816595E+14     -0.788416203666E+06     -0.163942798893E+07      0.131818121025E+00      0.000000000000E+00
     1      0.602337600000E+08      0.198900000000E+34      0.302154410794E+14     -0.179544986413E+14     -0.841107700059E+06     -0.160983654419E+07      0.131818121025E+00      0.000000000000E+00
     1      0.608644800000E+08      0.198900000000E+34      0.296767708535E+14     -0.189650019167E+14     -0.892595101328E+06     -0.157867345004E+07      0.131818121025E+00      0.000000000000E+00
     1      0.614952000000E+08      0.198900000000E+34      0.291058209765E+14     -0.199556081236E+14     -0.942839668678E+06     -0.154598897263E+07      0.131818121025E+00      0.000000000000E+00
     1      0.621259200000E+08      0.198900000000E+34      0.285033812000E+14     -0.209253656704E+14     -0.991804660577E+06     -0.151183378204E+07      0.131818121025E+00      0.000000000000E+00
     1      0.627566400000E+08      0.198900000000E+34      0.278702641388E+14     -0.218733549796E+14     -0.103945529372E+07     -0.147625888623E+07      0.131818121025E+00      0.000000000000E+00
     1      0.633873600000E+08      0.198900000000E+34      0.272073040423E+14     -0.227986886916E+14     -0.108575870310E+07     -0.143931556901E+07      0.131818121025E+00      0.000000000000E+00
     1      0.640180800000E+08      0.198900000000E+34      0.265153555908E+14     -0.237005118288E+14     -0.113068390141E+07     -0.140105533185E+07      0.131818121025E+00      0.000000000000E+00
     1      0.646488000000E+08      0.198900000000E+34      0.257952927175E+14     -0.245780019245E+14     -0.117420173806E+07     -0.136152983952E+07      0.131818121025E+00      0.000000000000E+00
     1      0.652795200000E+08      0.198900000000E+34      0.250480074570E+14     -0.254303691179E+14     -0.121628485785E+07     -0.132079086929E+07      0.131818121025E+00      0.000000000000E+00
     1      0.659102400000E+08      0.198900000000E+34      0.242744088190E+14     -0.262568562169E+14     -0.125690765972E+07     -0.127889026362E+07      0.131818121025E+00      0.000000000000E+00
     1      0.665409600000E+08      0.198900000000E+34      0.234754216886E+14     -0.270567387327E+14     -0.129604625550E+07     -0.123587988618E+07      0.131818121025E+00      0.000000000000E+00
     1      0.671716800000E+08      0.198900000000E+34      0.226519857524E+14     -0.278293248864E+14     -0.133367842900E+07     -0.119181158110E+07      0.131818121025E+00      0.000000000000E+00
     1      0.678024000000E+08      0.198900000000E+34      0.218050544504E+14     -0.285739555906E+14     -0.136978359550E+07     -0.114673713518E+07      0.131818121025E+00      0.000000000000E+00
     1      0.684331200000E+08      0.198900000000E+34      0.209355939533E+14     -0.292900044076E+14     -0.140434276177E+07     -0.110070824306E+07      0.131818121025E+00      0.000000000000E+00
     1      0.690638400000E+08      0.198900000000E+34      0.200445821648E+14     -0.299768774861E+14     -0.143733848675E+07     -0.105377647505E+07      0.131818121025E+00      0.000000000000E+00
     1      0.696945600000E+08      0.198900000000E+34      0.191330077491E+14     -0.306340134784E+14     -0.146875484299E+07     -0.100599324766E+07      0.131818121025E+00      0.000000000000E+00
     1      0.703252800000E+08      0.198900000000E+34      0.182018691817E+14     -0.312608834384E+14     -0.149857737898E+07     -0.957409796472E+06      0.131818121025E+00      0.000000000000E+00
     1      0.709560000000E+08      0.198900000000E+34      0.172521738247E+14     -0.318569907039E+14     -0.152679308234E+07     -0.908077151341E+06      0.131818121025E+00      0.000000000000E+00
     1      0.715867200000E+08      0.198900000000E+34      0.162849370248E+14     -0.324218707632E+14     -0.155339034409E+07     -0.858046113771E+06      0.131818121025E+00      0.000000000000E+00
     1      0.722174400000E+08      0.198900000000E+34      0.153011812334E+14     -0.329550911073E+14     -0.157835892395E+07     -0.807367236273E+06      0.131818121025E+00      0.000000000000E+00
     1      0.728481600000E+08      0.198900000000E+34      0.143019351489E+14     -0.334562510706E+14     -0.160168991676E+07     -0.756090803603E+06      0.131818121025E+00      0.000000000000E+00
     1      0.734788800000E+08      0.198900000000E+34      0.132882328797E+14     -0.339249816587E+14     -0.162337572009E+07     -0.704266815740E+06      0.131818121025E+00      0.000000000000E+00
     1      0.741096000000E+08      0.198900000000E+34      0.122611131275E+14     -0.343609453661E+14     -0.164341000304E+07     -0.651944972458E+06      0.131818121025E+00      0.000000000000E+00
     1      0.747403200000E+08      0.198900000000E+34      0.112216183900E+14     -0.347638359855E+14     -0.166178767621E+07     -0.599174659371E+06      0.131818121025E+00      0.000000000000E+00
     1      0.753710400000E+08      0.198900000000E+34      0.101707941828E+14     -0.351333784065E+14     -0.167850486308E+07     -0.546004935330E+06      0.131818121025E+00      0.000000000000E+00
     1      0.760017600000E+08      0.198900000000E+34      0.910968827820E+13     -0.354693284086E+14     -0.169355887246E+07     -0.492484521035E+06      0.131818121025E+00      0.000000000000E+00
     1      0.766324800000E+08      0.198900000000E+34      0.803934996237E+13     -0.357714724456E+14     -0.170694817240E+07     -0.438661788753E+06      0.131818121025E+00      0.000000000000E+00
     1      0.772632000000E+08      0.198900000000E+34      0.696082930776E+13     -0.360396274247E+14     -0.171867236522E+07     -0.384584753021E+06      0.131818121025E+00      0.000000000000E+00
     1      0.778939200000E+08      0.198900000000E+34      0.587517646162E+13     -0.362736404796E+14     -0.172873216399E+07     -0.330301062228E+06      0.131818121025E+00      0.000000000000E+00
     1      0.785246400000E+08      0.198900000000E+34      0.478344094901E+13     -0.364733887377E+14     -0.173712937012E+07     -0.275857990962E+06      0.131818121025E+00      0.000000000000E+00
     1      0.791553600000E+08      0.198900000000E+34      0.368667098970E+13     -0.366387790841E+14     -0.174386685234E+07     -0.221302433015E+06      0.131818121025E+00      0.000000000000E+00
     1      0.797860800000E+08      0.198900000000E+34      0.258591282814E+13     -0.367697479196E+14     -0.174894852686E+07     -0.166680894952E+06      0.131818121025E+00      0.000000000000E+00
     1      0.804168000000E+08      0.198900000000E+34      0.148221007584E+13     -0.368662609161E+14     -0.175237933880E+07     -0.112039490140E+06      0.131818121025E+00      0.000000000000E+00
     1      0.810475200000E+08      0.198900000000E+34      0.376603065142E+12     -0.369283127673E+14     -0.175416524483E+07     -0.574239331519E+05      0.131818121025E+00      0.000000000000E+00
     1      0.816782400000E+08      0.198900000000E+34     -0.729871786151E+12     -0.369559269366E+14     -0.175431319691E+07     -0.287953443513E+04      0.131818121025E+00      0.000000000000E+00
     1      0.823089600000E+08      0.198900000000E+34     -0.183618260013E+13     -0.369491554010E+14     -0.175283112734E+07      0.515488048173E+05      0.131818121025E+00      0.000000000000E+00
     1      0.829396800000E+08      0.198900000000E+34     -0.294130265484E+13     -0.369080783928E+14     -0.174972793477E+07      0.105816597696E+06      0.131818121025E+00      0.000000000000E+00
     1      0.835704000000E+08      0.198900000000E+34     -0.404421099174E+13     -0.368328041370E+14     -0.174501347141E+07      0.159879776577E+06      0.131818121025E+00      0.000000000000E+00
     1      0.842011200000E+08      0.198900000000E+34     -0.514389301521E+13     -0.367234685863E+14     -0.173869853125E+07      0.213694698178E+06      0.131818121025E+00      0.000000000000E+00
     1      0.848318400000E+08      0.198900000000E+34     -0.623934108480E+13     -0.365802351524E+14     -0.173079483924E+07      0.267218148735E+06      0.131818121025E+00      0.000000000000E+00
     1      0.854625600000E+08      0.198900000000E+34     -0.732955510086E+13     -0.364032944345E+14     -0.172131504151E+07      0.320407349382E+06      0.131818121025E+00      0.000000000000E+00
     1      0.860932800000E+08      0.198900000000E+34     -0.841354308409E+13     -0.361928639443E+14     -0.171027269649E+07      0.373219961794E+06      0.131818121025E+00      0.000000000000E+00
     1      0.867240000000E+08      0.198900000000E+34     -0.949032174964E+13     -0.359491878266E+14     -0.169768226685E+07      0.425614094159E+06      0.131818121025E+00      0.000000000000E+00
     1      0.873547200000E+08      0.198900000000E+34     -0.105589170763E+14     -0.356725365772E+14     -0.168355911231E+07      0.477548307538E+06      0.131818121025E+00      0.000000000000E+00
     1      0.879854400000E+08      0.198900000000E+34     -0.116183648711E+14     -0.353632067562E+14     -0.166791948323E+07      0.528981622686E+06      0.131818121025E+00      0.000000000000E+00
     1      0.886161600000E+08      0.198900000000E+34     -0.126677113304E+14     -0.350215206965E+14     -0.165078051484E+07      0.579873527364E+06      0.131818121025E+00      0.000000000000E+00
     1      0.892468800000E+08      0.198900000000E+34     -0.137060135969E+14     -0.346478262086E+14     -0.163216022221E+07      0.630183984225E+06      0.131818121025E+00      0.000000000000E+00
     1      0.898776000000E+08      0.198900000000E+34     -0.147323403140E+14     -0.342424962793E+14     -0.161207749577E+07      0.679873439294E+06      0.131818121025E+00      0.000000000000E+00
     1      0.905083200000E+08      0.198900000000E+34     -0.157457721772E+14     -0.338059287657E+14     -0.159055209739E+07      0.728902831109E+06      0.131818121025E+00      0.000000000000E+00
     1      0.911390400000E+08      0.198900000000E+34     -0.167454024833E+14     -0.333385460830E+14     -0.156760465689E+07      0.777233600565E+06      0.131818121025E+00      0.000000000000E+00
     1      0.917697600000E+08      0.198900000000E+34     -0.177303376770E+14     -0.328407948856E+14     -0.154325666907E+07      0.824827701483E+06      0.131818121025E+00      0.000000000000E+00
     1      0.924004800000E+08      0.198900000000E+34     -0.186996978966E+14     -0.323131457427E+14     -0.151753049091E+07      0.871647611966E+06      0.131818121025E+00      0.000000000000E+00
     1      0.930312000000E+08      0.198900000000E+34     -0.196526175167E+14     -0.317560928048E+14     -0.149044933926E+07      0.917656346558E+06      0.131818121025E+00      0.000000000000E+00
     1      0.936619200000E+08      0.198900000000E+34     -0.205882456908E+14     -0.311701534639E+14     -0.146203728855E+07      0.962817469242E+06      0.131818121025E+00      0.000000000000E+00
     1      0.942926400000E+08      0.198900000000E+34     -0.215057468915E+14     -0.305558680048E+14     -0.143231926873E+07      0.100709510731E+07      0.131818121025E+00      0.000000000000E+00
     1      0.949233600000E+08      0.198900000000E+34     -0.224043014498E+14     -0.299137992472E+14     -0.140132106329E+07      0.105045396611E+07      0.131818121025E+00      0.000000000000E+00
     1      0.955540800000E+08      0.198900000000E+34     -0.232831060935E+14     -0.292445321789E+14     -0.136906930721E+07      0.109285934472E+07      0.131818121025E+00      0.000000000000E+00
     1      0.961848000000E+08      0.198900000000E+34     -0.241413744833E+14     -0.285486735787E+14     -0.133559148488E+07      0.113427715253E+07      0.131818121025E+00      0.000000000000E+00
     1      0.968155200000E+08      0.198900000000E+34     -0.249783377487E+14     -0.278268516289E+14     -0.130091592777E+07      0.117467392679E+07      0.131818121025E+00      0.000000000000E+00
     1      0.974462400000E+08      0.198900000000E+34     -0.257932450216E+14     -0.270797155161E+14     -0.126507181201E+07      0.121401685107E+07      0.131818121025E+00      0.000000000000E+00
     1      0.980769600000E+08      0.198900000000E+34     -0.265853639689E+14     -0.263079350206E+14     -0.122808915549E+07      0.125227377467E+07      0.131818121025E+00      0.000000000000E+00
     1      0.987076800000E+08      0.198900000000E+34     -0.273539813225E+14     -0.255122000936E+14     -0.118999881462E+07      0.128941323305E+07      0.131818121025E+00      0.000000000000E+00
     1      0.993384000000E+08      0.198900000000E+34     -0.280984034081E+14     -0.246932204209E+14     -0.115083248069E+07      0.132540446910E+07      0.131818121025E+00      0.000000000000E+00
     1      0.999691200000E+08      0.198900000000E+34     -0.288179566707E+14     -0.238517249732E+14     -0.111062267548E+07      0.136021745543E+07      0.131818121025E+00      0.000000000000E+00
     1      0.100599840000E+09      0.198900000000E+34     -0.295119881978E+14     -0.229884615424E+14     -0.106940274642E+07      0.139382291757E+07      0.131818121025E+00      0.000000000000E+00
     1      0.101230560000E+09      0.198900000000E+34     -0.301798662395E+14     -0.221041962625E+14     -0.102720686085E+07      0.142619235802E+07      0.131818121025E+00      0.000000000000E+00
     1      0.101861280000E+09      0.198900000000E+34     -0.308209807243E+14     -0.211997131165E+14     -0.984069999577E+06      0.145729808127E+07      0.131818121025E+00      0.000000000000E+00
     1      0.102492000000E+09      0.198900000000E+34     -0.314347437713E+14     -0.202758134257E+14     -0.940027949501E+06      0.148711321961E+07      0.131818121025E+00      0.000000000000E+00
     1      0.103122720000E+09      0.198900000000E+34     -0.320205901972E+14     -0.193333153238E+14     -0.895117295209E+06      0.151561175977E+07      0.131818121025E+00      0.000000000000E+00
     1      0.103753440000E+09      0.198900000000E+34     -0.325779780180E+14     -0.183730532135E+14     -0.849375409566E+06      0.154276857038E+07      0.131818121025E+00      0.000000000000E+00
     1      0.104384160000E+09      0.198900000000E+34     -0.331063889447E+14     -0.173958772063E+14     -0.802840443121E+06      0.156855943009E+07      0.131818121025E+00      0.000000000000E+00
     1      0.105014880000E+09      0.198900000000E+34     -0.336053288716E+14     -0.164026525435E+14     -0.755551312298E+06      0.159296105649E+07      0.131818121025E+00      0.000000000000E+00
     1      0.105645600000E+09      0.198900000000E+34     -0.340743283579E+14     -0.153942589995E+14     -0.707547686260E+06      0.161595113552E+07      0.131818121025E+00      0.000000000000E+00
     1      0.106276320000E+09      0.198900000000E+34     -0.345129430998E+14     -0.143715902664E+14     -0.658869972405E+06      0.163750835157E+07      0.131818121025E+00      0.000000000000E+00
     1      0.106907040000E+09      0.198900000000E+34     -0.349207543938E+14     -0.133355533196E+14     -0.609559300379E+06      0.165761241802E+07      0.131818121025E+00      0.000000000000E+00
     1      0.107537760000E+09      0.198900000000E+34     -0.352973695896E+14     -0.122870677637E+14     -0.559657504561E+06      0.167624410821E+07      0.131818121025E+00      0.000000000000E+00
     1      0.108168480000E+09      0.198900000000E+34     -0.356424225315E+14     -0.112270651591E+14     -0.509207104940E+06      0.169338528678E+07      0.131818121025E+00      0.000000000000E+00
     1      0.108799200000E+09      0.198900000000E+34     -0.359555739877E+14     -0.101564883285E+14     -0.458251286313E+06      0.170901894121E+07      0.131818121025E+00      0.000000000000E+00
     1      0.109429920000E+09      0.198900000000E+34     -0.362365120661E+14     -0.907629064441E+13     -0.406833875747E+06      0.172312921365E+07      0.131818121025E+00      0.000000000000E+00
     1      0.110060640000E+09      0.198900000000E+34     -0.364849526157E+14     -0.798743529493E+13     -0.354999318245E+06      0.173570143268E+07      0.131818121025E+00      0.000000000000E+00
     1      0.110691360000E+09      0.198900000000E+34     -0.367006396122E+14     -0.689089453110E+13     -0.302792650556E+06      0.174672214514E+07      0.131818121025E+00      0.000000000000E+00
     1      0.111322080000E+09      0.198900000000E+34     -0.368833455269E+14     -0.578764889325E+13     -0.250259473093E+06      0.175617914779E+07      0.131818121025E+00      0.000000000000E+00
     1      0.111952800000E+09      0.198900000000E+34     -0.370328716775E+14     -0.467868641771E+13     -0.197445919899E+06      0.176406151869E+07      0.131818121025E+00      0.000000000000E+00
     1      0.112583520000E+09      0.198900000000E+34     -0.371490485599E+14     -0.356500182381E+13     -0.144398626640E+06      0.177035964825E+07      0.131818121025E+00      0.000000000000E+00
     1      0.113214240000E+09      0.198900000000E+34     -0.372317361590E+14     -0.244759568126E+13     -0.911646965858E+05      0.177506526978E+07      0.131818121025E+00      0.000000000000E+00
     1      0.113844960000E+09      0.198900000000E+34     -0.372808242382E+14     -0.132747355846E+13     -0.377916645555E+05      0.177817148937E+07      0.131818121025E+00      0.000000000000E+00
     1      0.114475680000E+09      0.198900000000E+34     -0.372962326058E+14     -0.205645151998E+12      0.156725411811E+05      0.177967281506E+07      0.131818121025E+00      0.000000000000E+00
     1      0.115106400000E+09      0.198900000000E+34     -0.372779113566E+14      0.916876602056E+12      0.691796390602E+05      0.177956518509E+07      0.131818121025E+00      0.000000000000E+00
     1      0.115737120000E+09      0.198900000000E+34     -0.372258410884E+14      0.203907643457E+13      0.122681036433E+06      0.177784599516E+07      0.131818121025E+00      0.000000000000E+00
     1      0.116367840000E+09      0.198900000000E+34     -0.371400330911E+14      0.315993766674E+13      0.176127873816E+06      0.177451412443E+07      0.131818121025E+00      0.000000000000E+00
     1      0.116998560000E+09      0.198900000000E+34     -0.370205295080E+14      0.427844314969E+13      0.229471071167E+06      0.176956996028E+07      0.131818121025E+00      0.000000000000E+00
     1      0.117629280000E+09      0.198900000000E+34     -0.368674034672E+14      0.539357621946E+13      0.282661376152E+06      0.176301542157E+07      0.131818121025E+00      0.000000000000E+00
     1      0.118260000000E+09      0.198900000000E+34     -0.366807591826E+14      0.650432166645E+13      0.335649414362E+06      0.175485398027E+07      0.131818121025E+00      0.000000000000E+00
     1      0.118890720000E+09      0.198900000000E+34     -0.364607320226E+14      0.760966671817E+13      0.388385741433E+06      0.174509068137E+07      0.131818121025E+00      0.000000000000E+00
     1      0.119521440000E+09      0.198900000000E+34     -0.362074885456E+14      0.870860203430E+13      0.440820897007E+06      0.173373216082E+07      0.131818121025E+00      0.000000000000E+00
     1      0.120152160000E+09      0.198900000000E+34     -0.359212265021E+14      0.980012271275E+13      0.492905460459E+06      0.172078666145E+07      0.131818121025E+00      0.000000000000E+00
     1      0.120782880000E+09      0.198900000000E+34     -0.356021747996E+14      0.108832293054E+14      0.544590108308E+06      0.170626404674E+07      0.131818121025E+00      0.000000000000E+00
     1      0.121413600000E+09      0.198900000000E+34     -0.352505934331E+14      0.119569288421E+14      0.595825673212E+06      0.169017581212E+07      0.131818121025E+00      0.000000000000E+00
     1      0.122044320000E+09      0.198900000000E+34     -0.348667733765E+14      0.130202358616E+14      0.646563204456E+06      0.167253509390E+07      0.131818121025E+00      0.000000000000E+00
     1      0.122675040000E+09      0.198900000000E+34     -0.344510364363E+14      0.140721734474E+14      0.696754029796E+06      0.165335667558E+07      0.131818121025E+00      0.000000000000E+00
     1      0.123305760000E+09      0.198900000000E+34     -0.340037350665E+14      0.151117742677E+14      0.746349818545E+06      0.163265699136E+07      0.131818121025E+00      0.000000000000E+00
     1      0.123936480000E+09      0.198900000000E+34     -0.335252521426E+14      0.161380816162E+14      0.795302645757E+06      0.161045412684E+07      0.131818121025E+00      0.000000000000E+00
     1      0.124567200000E+09      0.198900000000E+34     -0.330160006957E+14      0.171501504538E+14      0.843565057358E+06      0.158676781675E+07      0.131818121025E+00      0.000000000000E+00
     1      0.125197920000E+09      0.198900000000E+34     -0.324764236051E+14      0.181470484482E+14      0.891090136071E+06      0.156161943959E+07      0.131818121025E+00      0.000000000000E+00
     1      0.125828640000E+09      0.198900000000E+34     -0.319069932493E+14      0.191278570090E+14      0.937831567955E+06      0.153503200908E+07      0.131818121025E+00      0.000000000000E+00
     1      0.126459360000E+09      0.198900000000E+34     -0.313082111148E+14      0.200916723174E+14      0.983743709394E+06      0.150703016243E+07      0.131818121025E+00      0.000000000000E+00
     1      0.127090080000E+09      0.198900000000E+34     -0.306806073630E+14      0.210376063482E+14      0.102878165433E+07      0.147764014516E+07      0.131818121025E+00      0.000000000000E+00
     1      0.127720800000E+09      0.198900000000E+34     -0.300247403540E+14      0.219647878814E+14      0.107290130158E+07      0.144688979264E+07      0.131818121025E+00      0.000000000000E+00
     1      0.128351520000E+09      0.198900000000E+34     -0.293411961285E+14      0.228723635011E+14      0.111605942198E+07      0.141480850814E+07      0.131818121025E+00      0.000000000000E+00
     1      0.128982240000E+09      0.198900000000E+34     -0.286305878475E+14      0.237594985814E+14      0.115821372518E+07      0.138142723738E+07      0.131818121025E+00      0.000000000000E+00
     1      0.129612960000E+09      0.198900000000E+34     -0.278935551892E+14      0.246253782539E+14      0.119932292595E+07      0.134677843967E+07      0.131818121025E+00      0.000000000000E+00
     1      0.130243680000E+09      0.198900000000E+34     -0.271307637053E+14      0.254692083581E+14      0.123934680961E+07      0.131089605540E+07      0.131818121025E+00      0.000000000000E+00
     1      0.130874400000E+09      0.198900000000E+34     -0.263429041350E+14      0.262902163696E+14      0.127824629651E+07      0.127381547019E+07      0.131818121025E+00      0.000000000000E+00
     1      0.131505120000E+09      0.198900000000E+34     -0.255306916795E+14      0.270876523059E+14      0.131598350531E+07      0.123557347545E+07      0.131818121025E+00      0.000000000000E+00
     1      0.132135840000E+09      0.198900000000E+34     -0.246948652360E+14      0.278607896060E+14      0.135252181479E+07      0.119620822555E+07      0.131818121025E+00      0.000000000000E+00
     1      0.132766560000E+09      0.198900000000E+34     -0.238361865938E+14      0.286089259834E+14      0.138782592400E+07      0.115575919161E+07      0.131818121025E+00      0.000000000000E+00
     1      0.133397280000E+09      0.198900000000E+34     -0.229554395921E+14      0.293313842483E+14      0.142186191055E+07      0.111426711198E+07      0.131818121025E+00      0.000000000000E+00
     1      0.134028000000E+09      0.198900000000E+34     -0.220534292416E+14      0.300275130995E+14      0.145459728678E+07      0.107177393948E+07      0.131818121025E+00      0.000000000000E+00
     1      0.134658720000E+09      0.198900000000E+34     -0.211309808106E+14      0.306966878808E+14      0.148600105364E+07      0.102832278552E+07      0.131818121025E+00      0.000000000000E+00
     1      0.135289440000E+09      0.198900000000E+34     -0.201889388788E+14      0.313383113032E+14      0.151604375204E+07      0.983957861268E+06      0.131818121025E+00      0.000000000000E+00
     1      0.135920160000E+09      0.198900000000E+34     -0.192281663574E+14      0.319518141288E+14      0.154469751151E+07      0.938724415904E+06      0.131818121025E+00      0.000000000000E+00
     1      0.136550880000E+09      0.198900000000E+34     -0.182495434802E+14      0.325366558152E+14      0.157193609593E+07      0.892668672162E+06      0.131818121025E+00      0.000000000000E+00
     1      0.137181600000E+09      0.198900000000E+34     -0.172539667657E+14      0.330923251195E+14      0.159773494618E+07      0.845837759340E+06      0.131818121025E+00      0.000000000000E+00
     1      0.137812320000E+09      0.198900000000E+34     -0.162423479533E+14      0.336183406586E+14      0.162207121955E+07      0.798279643926E+06      0.131818121025E+00      0.000000000000E+00
     1      0.138443040000E+09      0.198900000000E+34     -0.152156129148E+14      0.341142514268E+14      0.164492382574E+07      0.750043058038E+06      0.131818121025E+00      0.000000000000E+00
     1      0.139073760000E+09      0.198900000000E+34     -0.141747005437E+14      0.345796372664E+14      0.166627345931E+07      0.701177425881E+06      0.131818121025E+00      0.000000000000E+00
     1      0.139704480000E+09      0.198900000000E+34     -0.131205616252E+14      0.350141092932E+14      0.168610262838E+07      0.651732788441E+06      0.131818121025E+00      0.000000000000E+00
     1      0.140335200000E+09      0.198900000000E+34     -0.120541576876E+14      0.354173102727E+14      0.170439567964E+07      0.601759726618E+06      0.131818121025E+00      0.000000000000E+00
     1      0.140965920000E+09      0.198900000000E+34     -0.109764598400E+14      0.357889149488E+14      0.172113881937E+07      0.551309283055E+06      0.131818121025E+00      0.000000000000E+00
     1      0.141596640000E+09      0.198900000000E+34     -0.988844759576E+13      0.361286303227E+14      0.173632013047E+07      0.500432882884E+06      0.131818121025E+00      0.000000000000E+00
     1      0.142227360000E+09      0.198900000000E+34     -0.879110768735E+13      0.364361958809E+14      0.174992958553E+07      0.449182253636E+06      0.131818121025E+00      0.000000000000E+00
     1      0.142858080000E+09      0.198900000000E+34     -0.768543287252E+13      0.367113837739E+14      0.176195905569E+07      0.397609344565E+06      0.131818121025E+00      0.000000000000E+00
     1      0.143488800000E+09      0.198900000000E+34     -0.657242073606E+13      0.369539989430E+14      0.177240231544E+07      0.345766245643E+06      0.131818121025E+00      0.000000000000E+00
     1      0.144119520000E+09      0.198900000000E+34     -0.545307248904E+13      0.371638791963E+14      0.178125504322E+07      0.293705106468E+06      0.131818121025E+00      0.000000000000E+00
     1      0.144750240000E+09      0.198900000000E+34     -0.432839176833E+13      0.373408952334E+14      0.178851481795E+07      0.241478055350E+06      0.131818121025E+00      0.000000000000E+00
     1      0.145380960000E+09      0.198900000000E+34     -0.319938343898E+13      0.374849506194E+14      0.179418111136E+07      0.189137118819E+06      0.131818121025E+00      0.000000000000E+00
     1      0.146011680000E+09      0.198900000000E+34     -0.206705240210E+13      0.375959817083E+14      0.179825527632E+07      0.136734141813E+06      0.131818121025E+00      0.000000000000E+00
     1      0.146642400000E+09      0.198900000000E+34     -0.932402410662E+12      0.376739575154E+14      0.180074053106E+07      0.843207087785E+05      0.131818121025E+00      0.000000000000E+00
     1      0.147273120000E+09      0.198900000000E+34      0.203565104046E+12      0.377188795414E+14      0.180164193955E+07      0.319480659432E+05      0.131818121025E+00      0.000000000000E+00
     1      0.147903840000E+09      0.198900000000E+34      0.133985219300E+13      0.377307815463E+14      0.180096638794E+07     -0.203329550260E+05      0.131818121025E+00      0.000000000000E+00
     1      0.148534560000E+09      0.198900000000E+34      0.247546553460E+13      0.377097292766E+14      0.179872255731E+07     -0.724720117406E+05      0.131818121025E+00      0.000000000000E+00
     1      0.149165280000E+09      0.198900000000E+34      0.360941756197E+13      0.376558201450E+14      0.179492089275E+07     -0.124419323973E+06      0.131818121025E+00      0.000000000000E+00
     1      0.149796000000E+09      0.198900000000E+34      0.474072757037E+13      0.375691828643E+14      0.178957356899E+07     -0.176125744496E+06      0.131818121025E+00      0.000000000000E+00
     1      0.150426720000E+09      0.198900000000E+34      0.586842280220E+13      0.374499770377E+14      0.178269445271E+07     -0.227542827691E+06      0.131818121025E+00      0.000000000000E+00
     1      0.151057440000E+09      0.198900000000E+34      0.699153950788E+13      0.372983927055E+14      0.177429906159E+07     -0.278622895729E+06      0.131818121025E+00      0.000000000000E+00
     1      0.151688160000E+09      0.198900000000E+34      0.810912398032E+13      0.371146498505E+14      0.176440452046E+07     -0.329319102174E+06      0.131818121025E+00      0.000000000000E+00
     1      0.152318880000E+09      0.198900000000E+34      0.922023356137E+13      0.368989978643E+14      0.175302951456E+07     -0.379585492833E+06      0.131818121025E+00      0.000000000000E+00
     1      0.152949600000E+09      0.198900000000E+34      0.103239376183E+14      0.366517149751E+14      0.174019424020E+07     -0.429377063739E+06      0.131818121025E+00      0.000000000000E+00
     1      0.153580320000E+09      0.198900000000E+34      0.114193184887E+14      0.363731076396E+14      0.172592035301E+07     -0.478649816103E+06      0.131818121025E+00      0.000000000000E+00
     1      0.154211040000E+09      0.198900000000E+34      0.125054723927E+14      0.360635099009E+14      0.171023091392E+07     -0.527360808165E+06      0.131818121025E+00      0.000000000000E+00
     1      0.154841760000E+09      0.198900000000E+34      0.135815103103E+14      0.357232827135E+14      0.169315033317E+07     -0.575468203824E+06      0.131818121025E+00      0.000000000000E+00
     1      0.155472480000E+09      0.198900000000E+34      0.146465588235E+14      0.353528132392E+14      0.167470431248E+07     -0.622931317965E+06      0.131818121025E+00      0.000000000000E+00
     1      0.156103200000E+09      0.198900000000E+34      0.156997609217E+14      0.349525141142E+14      0.165491978568E+07     -0.669710658444E+06      0.131818121025E+00      0.000000000000E+00
     1      0.156733920000E+09      0.198900000000E+34      0.167402767689E+14      0.345228226904E+14      0.163382485795E+07     -0.715767964654E+06      0.131818121025E+00      0.000000000000E+00
     1      0.157364640000E+09      0.198900000000E+34      0.177672844330E+14      0.340642002531E+14      0.161144874390E+07     -0.761066242655E+06      0.131818121025E+00      0.000000000000E+00
     1      0.157995360000E+09      0.198900000000E+34      0.187799805759E+14      0.335771312168E+14      0.158782170472E+07     -0.805569796851E+06      0.131818121025E+00      0.000000000000E+00
     1      0.158626080000E+09      0.198900000000E+34      0.197775811031E+14      0.330621223018E+14      0.156297498466E+07     -0.849244258202E+06      0.131818121025E+00      0.000000000000E+00
     1      0.159256800000E+09      0.198900000000E+34      0.207593217741E+14      0.325197016934E+14      0.153694074688E+07     -0.892056608995E+06      0.131818121025E+00      0.000000000000E+00
     1      0.159887520000E+09      0.198900000000E+34      0.217244587714E+14      0.319504181864E+14      0.150975200914E+07     -0.933975204178E+06      0.131818121025E+00      0.000000000000E+00
     1      0.160518240000E+09      0.198900000000E+34      0.226722692299E+14      0.313548403159E+14      0.148144257928E+07     -0.974969789327E+06      0.131818121025E+00      0.000000000000E+00
     1      0.161148960000E+09      0.198900000000E+34      0.236020517244E+14      0.307335554781E+14      0.145204699082E+07     -0.101501151526E+07      0.131818121025E+00      0.000000000000E+00
     1      0.161779680000E+09      0.198900000000E+34      0.245131267179E+14      0.300871690420E+14      0.142160043885E+07     -0.105407294939E+07      0.131818121025E+00      0.000000000000E+00
     1      0.162410400000E+09      0.198900000000E+34      0.254048369680E+14      0.294163034544E+14      0.139013871632E+07     -0.109212808388E+07      0.131818121025E+00      0.000000000000E+00
     1      0.163041120000E+09      0.198900000000E+34      0.262765478947E+14      0.287215973406E+14      0.135769815103E+07     -0.112915234067E+07      0.131818121025E+00      0.000000000000E+00
     1      0.163671840000E+09      0.198900000000E+34      0.271276479076E+14      0.280037046018E+14      0.132431554335E+07     -0.116512257348E+07      0.131818121025E+00      0.000000000000E+00
     1      0.164302560000E+09      0.198900000000E+34      0.279575486943E+14      0.272632935124E+14      0.129002810490E+07     -0.120001706691E+07      0.131818121025E+00      0.000000000000E+00
     1      0.164933280000E+09      0.198900000000E+34      0.287656854700E+14      0.265010458181E+14      0.125487339826E+07     -0.123381553271E+07      0.131818121025E+00      0.000000000000E+00
     1      0.165564000000E+09      0.198900000000E+34      0.295515171899E+14      0.257176558363E+14      0.121888927799E+07     -0.126649910333E+07      0.131818121025E+00      0.000000000000E+00
     1      0.166194720000E+09      0.198900000000E+34      0.303145267241E+14      0.249138295615E+14      0.118211383291E+07     -0.129805032294E+07      0.131818121025E+00      0.000000000000E+00
     1      0.166825440000E+09      0.198900000000E+34      0.310542209960E+14      0.240902837768E+14      0.114458532980E+07     -0.132845313594E+07      0.131818121025E+00      0.000000000000E+00
     1      0.167456160000E+09      0.198900000000E+34      0.317701310865E+14      0.232477451725E+14      0.110634215874E+07     -0.135769287317E+07      0.131818121025E+00      0.000000000000E+00
     1      0.168086880000E+09      0.198900000000E+34      0.324618123028E+14      0.223869494744E+14      0.106742278004E+07     -0.138575623596E+07      0.131818121025E+00      0.000000000000E+00
     1      0.168717600000E+09      0.198900000000E+34      0.331288442150E+14      0.215086405821E+14      0.102786567285E+07     -0.141263127803E+07      0.131818121025E+00      0.000000000000E+00
     1      0.169348320000E+09      0.198900000000E+34      0.337708306597E+14      0.206135697188E+14      0.987709285602E+06     -0.143830738559E+07      0.131818121025E+00      0.000000000000E+00
     1      0.169979040000E+09      0.198900000000E+34      0.343873997130E+14      0.197024945946E+14      0.946991988333E+06     -0.146277525556E+07      0.131818121025E+00      0.000000000000E+00
     1      0.170609760000E+09      0.198900000000E+34      0.349782036343E+14      0.187761785835E+14      0.905752026836E+06     -0.148602687215E+07      0.131818121025E+00      0.000000000000E+00
     1      0.171240480000E+09      0.198900000000E+34      0.355429187802E+14      0.178353899148E+14      0.864027478802E+06     -0.150805548200E+07      0.131818121025E+00      0.000000000000E+00
     1      0.171871200000E+09      0.198900000000E+34      0.360812454925E+14      0.168809008815E+14      0.821856211916E+06     -0.152885556789E+07      0.131818121025E+00      0.000000000000E+00
     1      0.172501920000E+09      0.198900000000E+34      0.365929079588E+14      0.159134870647E+14      0.779275843958E+06     -0.154842282118E+07      0.131818121025E+00      0.000000000000E+00
     1      0.173132640000E+09      0.198900000000E+34      0.370776540491E+14      0.149339265758E+14      0.736323704908E+06     -0.156675411320E+07      0.131818121025E+00      0.000000000000E+00
     1      0.173763360000E+09      0.198900000000E+34      0.375352551286E+14      0.139429993170E+14      0.693036801076E+06     -0.158384746566E+07      0.131818121025E+00      0.000000000000E+00
     1      0.174394080000E+09      0.198900000000E+34      0.379655058479E+14      0.129414862605E+14      0.649451781239E+06     -0.159970202014E+07      0.131818121025E+00      0.000000000000E+00
     1      0.175024800000E+09      0.198900000000E+34      0.383682239127E+14      0.119301687469E+14      0.605604904797E+06     -0.161431800688E+07      0.131818121025E+00      0.000000000000E+00
     1      0.175655520000E+09      0.198900000000E+34      0.387432498330E+14      0.109098278038E+14      0.561532011913E+06     -0.162769671300E+07      0.131818121025E+00      0.000000000000E+00
     1      0.176286240000E+09      0.198900000000E+34      0.390904466549E+14      0.988124348389E+13      0.517268495630E+06     -0.163984045015E+07      0.131818121025E+00      0.000000000000E+00
     1      0.176916960000E+09      0.198900000000E+34      0.394096996735E+14      0.884519422451E+13      0.472849275935E+06     -0.165075252178E+07      0.131818121025E+00      0.000000000000E+00
     1      0.177547680000E+09      0.198900000000E+34      0.397009161314E+14      0.780245622676E+13      0.428308775731E+06     -0.166043719015E+07      0.131818121025E+00      0.000000000000E+00
     1      0.178178400000E+09      0.198900000000E+34      0.399640249015E+14      0.675380285624E+13      0.383680898689E+06     -0.166889964313E+07      0.131818121025E+00      0.000000000000E+00
     1      0.178809120000E+09      0.198900000000E+34      0.401989761560E+14      0.570000406443E+13      0.338999008939E+06     -0.167614596092E+07      0.131818121025E+00      0.000000000000E+00
     1      0.179439840000E+09      0.198900000000E+34      0.404057410230E+14      0.464182583115E+13      0.294295912540E+06     -0.168218308272E+07      0.131818121025E+00      0.000000000000E+00
     1      0.180070560000E+09      0.198900000000E+34      0.405843112324E+14      0.358002962801E+13      0.249603840703E+06     -0.168701877356E+07      0.131818121025E+00      0.000000000000E+00
     1      0.180701280000E+09      0.198900000000E+34      0.407346987504E+14      0.251537190276E+13      0.204954434693E+06     -0.169066159119E+07      0.131818121025E+00      0.000000000000E+00
     1      0.181332000000E+09      0.198900000000E+34      0.408569354051E+14      0.144860358449E+13      0.160378732382E+06     -0.169312085330E+07      0.131818121025E+00      0.000000000000E+00
     1      0.181962720000E+09      0.198900000000E+34      0.409510725044E+14      0.380469609461E+12      0.115907156359E+06     -0.169440660498E+07      0.131818121025E+00      0.000000000000E+00
     1      0.182593440000E+09      0.198900000000E+34      0.410171804462E+14     -0.688291532582E+12      0.715695035829E+05     -0.169452958654E+07      0.131818121025E+00      0.000000000000E+00
     1      0.183224160000E+09      0.198900000000E+34      0.410553483220E+14     -0.175694823188E+13      0.273949364811E+05     -0.169350120179E+07      0.131818121025E+00      0.000000000000E+00
     1      0.183854880000E+09      0.198900000000E+34      0.410656835158E+14     -0.282477617222E+13     -0.165880245444E+05     -0.169133348679E+07      0.131818121025E+00      0.000000000000E+00
     1      0.184485600000E+09      0.198900000000E+34      0.410483112978E+14     -0.389105872480E+13     -0.603515072747E+05     -0.168803907910E+07      0.131818121025E+00      0.000000000000E+00
     1      0.185116320000E+09      0.198900000000E+34      0.410033744152E+14     -0.495508732284E+13     -0.103868292555E+06     -0.168363118762E+07      0.131818121025E+00      0.000000000000E+00
     1      0.185747040000E+09      0.198900000000E+34      0.409310326793E+14     -0.601616181728E+13     -0.147111817960E+06     -0.167812356307E+07      0.131818121025E+00      0.000000000000E+00
     1      0.186377760000E+09      0.198900000000E+34      0.408314625510E+14     -0.707359081391E+13     -0.190056180312E+06     -0.167153046901E+07      0.131818121025E+00      0.000000000000E+00
     1      0.187008480000E+09      0.198900000000E+34      0.407048567247E+14     -0.812669199234E+13     -0.232676137104E+06     -0.166386665372E+07      0.131818121025E+00      0.000000000000E+00
     1      0.187639200000E+09      0.198900000000E+34      0.405514237116E+14     -0.917479240737E+13     -0.274947106895E+06     -0.165514732256E+07      0.131818121025E+00      0.000000000000E+00
     1      0.188269920000E+09      0.198900000000E+34      0.403713874226E+14     -0.102172287730E+14     -0.316845168747E+06     -0.164538811126E+07      0.131818121025E+00      0.000000000000E+00
     1      0.188900640000E+09      0.198900000000E+34      0.401649867520E+14     -0.112533477299E+14     -0.358347060740E+06     -0.163460505983E+07      0.131818121025E+00      0.000000000000E+00
     1      0.189531360000E+09      0.198900000000E+34      0.399324751624E+14     -0.122825060960E+14     -0.399430177650E+06     -0.162281458729E+07      0.131818121025E+00      0.000000000000E+00
     1      0.190162080000E+09      0.198900000000E+34      0.396741202705E+14     -0.133040711020E+14     -0.440072567834E+06     -0.161003346712E+07      0.131818121025E+00      0.000000000000E+00
     1      0.190792800000E+09      0.198900000000E+34      0.393902034361E+14     -0.143174206111E+14     -0.480252929377E+06     -0.159627880359E+07      0.131818121025E+00      0.000000000000E+00
     1      0.191423520000E+09      0.198900000000E+34      0.390810193522E+14     -0.153219433239E+14     -0.519950605562E+06     -0.158156800880E+07      0.131818121025E+00      0.000000000000E+00
     1      0.192054240000E+09      0.198900000000E+34      0.387468756395E+14     -0.163170389690E+14     -0.559145579717E+06     -0.156591878053E+07      0.131818121025E+00      0.000000000000E+00
     1      0.192684960000E+09      0.198900000000E+34      0.383880924434E+14     -0.173021184799E+14     -0.597818469483E+06     -0.154934908090E+07      0.131818121025E+00      0.000000000000E+00
     1      0.193315680000E+09      0.198900000000E+34      0.380050020347E+14     -0.182766041584E+14     -0.635950520563E+06     -0.153187711586E+07      0.131818121025E+00      0.000000000000E+00
     1      0.193946400000E+09      0.198900000000E+34      0.375979484147E+14     -0.192399298252E+14     -0.673523599992E+06     -0.151352131540E+07      0.131818121025E+00      0.000000000000E+00
     1      0.194577120000E+09      0.198900000000E+34      0.371672869245E+14     -0.201915409584E+14     -0.710520188981E+06     -0.149430031459E+07      0.131818121025E+00      0.000000000000E+00
     1      0.195207840000E+09      0.198900000000E+34      0.367133838586E+14     -0.211308948196E+14     -0.746923375379E+06     -0.147423293544E+07      0.131818121025E+00      0.000000000000E+00
     1      0.195838560000E+09      0.198900000000E+34      0.362366160837E+14     -0.220574605692E+14     -0.782716845789E+06     -0.145333816942E+07      0.131818121025E+00      0.000000000000E+00
     1      0.196469280000E+09      0.198900000000E+34      0.357373706620E+14     -0.229707193709E+14     -0.817884877392E+06     -0.143163516088E+07      0.131818121025E+00      0.000000000000E+00
     1      0.197100000000E+09      0.198900000000E+34      0.352160444805E+14     -0.238701644850E+14     -0.852412329505E+06     -0.140914319110E+07      0.131818121025E+00      0.000000000000E+00
     1      0.197730720000E+09      0.198900000000E+34      0.346730438849E+14     -0.247553013530E+14     -0.886284634924E+06     -0.138588166314E+07      0.131818121025E+00      0.000000000000E+00
     1      0.198361440000E+09      0.198900000000E+34      0.341087843193E+14     -0.256256476714E+14     -0.919487791077E+06     -0.136187008741E+07      0.131818121025E+00      0.000000000000E+00
     1      0.198992160000E+09      0.198900000000E+34      0.335236899716E+14     -0.264807334580E+14     -0.952008351024E+06     -0.133712806793E+07      0.131818121025E+00      0.000000000000E+00
     1      0.199622880000E+09      0.198900000000E+34      0.329181934244E+14     -0.273201011081E+14     -0.983833414340E+06     -0.131167528927E+07      0.131818121025E+00      0.000000000000E+00
     1      0.200253600000E+09      0.198900000000E+34      0.322927353117E+14     -0.281433054439E+14     -0.101495061791E+07     -0.128553150422E+07      0.131818121025E+00      0.000000000000E+00
     1      0.200884320000E+09      0.198900000000E+34      0.316477639816E+14     -0.289499137554E+14     -0.104534812666E+07     -0.125871652201E+07      0.131818121025E+00      0.000000000000E+00
     1      0.201515040000E+09      0.198900000000E+34      0.309837351646E+14     -0.297395058342E+14     -0.107501462427E+07     -0.123125019729E+07      0.131818121025E+00      0.000000000000E+00
     1      0.202145760000E+09      0.198900000000E+34      0.303011116480E+14     -0.305116740006E+14     -0.110393930385E+07     -0.120315241965E+07      0.131818121025E+00      0.000000000000E+00
     1      0.202776480000E+09      0.198900000000E+34      0.296003629560E+14     -0.312660231239E+14     -0.113211185867E+07     -0.117444310375E+07      0.131818121025E+00      0.000000000000E+00
     1      0.203407200000E+09      0.198900000000E+34      0.288819650357E+14     -0.320021706369E+14     -0.115952247288E+07     -0.114514218007E+07      0.131818121025E+00      0.000000000000E+00
     1      0.204037920000E+09      0.198900000000E+34      0.281463999487E+14     -0.327197465443E+14     -0.118616181239E+07     -0.111526958616E+07      0.131818121025E+00      0.000000000000E+00
     1      0.204668640000E+09      0.198900000000E+34      0.273941555694E+14     -0.334183934262E+14     -0.121202101566E+07     -0.108484525848E+07      0.131818121025E+00      0.000000000000E+00
     1      0.205299360000E+09      0.198900000000E+34      0.266257252874E+14     -0.340977664356E+14     -0.123709168481E+07     -0.105388912472E+07      0.131818121025E+00      0.000000000000E+00
     1      0.205930080000E+09      0.198900000000E+34      0.258416077172E+14     -0.347575332924E+14     -0.126136587663E+07     -0.102242109669E+07      0.131818121025E+00      0.000000000000E+00
     1      0.206560800000E+09      0.198900000000E+34      0.250423064126E+14     -0.353973742716E+14     -0.128483609388E+07     -0.990461063586E+06      0.131818121025E+00      0.000000000000E+00
     1      0.207191520000E+09      0.198900000000E+34      0.242283295867E+14     -0.360169821888E+14     -0.130749527662E+07     -0.958028885803E+06      0.131818121025E+00      0.000000000000E+00
     1      0.207822240000E+09      0.198900000000E+34      0.234001898375E+14     -0.366160623803E+14     -0.132933679383E+07     -0.925144389156E+06      0.131818121025E+00      0.000000000000E+00
     1      0.208452960000E+09      0.198900000000E+34      0.225584038788E+14     -0.371943326812E+14     -0.135035443507E+07     -0.891827359517E+06      0.131818121025E+00      0.000000000000E+00
     1      0.209083680000E+09      0.198900000000E+34      0.217034922758E+14     -0.377515233989E+14     -0.137054240238E+07     -0.858097537860E+06      0.131818121025E+00      0.000000000000E+00
     1      0.209714400000E+09      0.198900000000E+34      0.208359791867E+14     -0.382873772841E+14     -0.138989530239E+07     -0.823974615687E+06      0.131818121025E+00      0.000000000000E+00
     1      0.210345120000E+09      0.198900000000E+34      0.199563921086E+14     -0.388016494993E+14     -0.140840813863E+07     -0.789478230810E+06      0.131818121025E+00      0.000000000000E+00
     1      0.210975840000E+09      0.198900000000E+34      0.190652616281E+14     -0.392941075838E+14     -0.142607630398E+07     -0.754627963486E+06      0.131818121025E+00      0.000000000000E+00
     1      0.211606560000E+09      0.198900000000E+34      0.181631211771E+14     -0.397645314170E+14     -0.144289557345E+07     -0.719443332863E+06      0.131818121025E+00      0.000000000000E+00
     1      0.212237280000E+09      0.198900000000E+34      0.172505067931E+14     -0.402127131796E+14     -0.145886209707E+07     -0.683943793743E+06      0.131818121025E+00      0.000000000000E+00
     1      0.212868000000E+09      0.198900000000E+34      0.163279568831E+14     -0.406384573123E+14     -0.147397239310E+07     -0.648148733626E+06      0.131818121025E+00      0.000000000000E+00
     1      0.213498720000E+09      0.198900000000E+34      0.153960119932E+14     -0.410415804728E+14     -0.148822334144E+07     -0.612077470023E+06      0.131818121025E+00      0.000000000000E+00
     1      0.214129440000E+09      0.198900000000E+34      0.144552145810E+14     -0.414219114915E+14     -0.150161217724E+07     -0.575749248024E+06      0.131818121025E+00      0.000000000000E+00
     1      0.214760160000E+09      0.198900000000E+34      0.135061087927E+14     -0.417792913255E+14     -0.151413648482E+07     -0.539183238097E+06      0.131818121025E+00      0.000000000000E+00
     1      0.215390880000E+09      0.198900000000E+34      0.125492402437E+14     -0.421135730108E+14     -0.152579419179E+07     -0.502398534105E+06      0.131818121025E+00      0.000000000000E+00
     1      0.216021600000E+09      0.198900000000E+34      0.115851558030E+14     -0.424246216143E+14     -0.153658356342E+07     -0.465414151527E+06      0.131818121025E+00      0.000000000000E+00
     1      0.216652320000E+09      0.198900000000E+34      0.106144033814E+14     -0.427123141837E+14     -0.154650319729E+07     -0.428249025861E+06      0.131818121025E+00      0.000000000000E+00
     1      0.217283040000E+09      0.198900000000E+34      0.963753172208E+13     -0.429765396966E+14     -0.155555201813E+07     -0.390922011190E+06      0.131818121025E+00      0.000000000000E+00
     1      0.217913760000E+09      0.198900000000E+34      0.865509019562E+13     -0.432171990098E+14     -0.156372927298E+07     -0.353451878913E+06      0.131818121025E+00      0.000000000000E+00
     1      0.218544480000E+09      0.198900000000E+34      0.766762859719E+13     -0.434342048060E+14     -0.157103452655E+07     -0.315857316602E+06      0.131818121025E+00      0.000000000000E+00
     1      0.219175200000E+09      0.198900000000E+34      0.667569694694E+13     -0.436274815414E+14     -0.157746765684E+07     -0.278156926988E+06      0.131818121025E+00      0.000000000000E+00
     1      0.219805920000E+09      0.198900000000E+34      0.567984529306E+13     -0.437969653918E+14     -0.158302885102E+07     -0.240369227054E+06      0.131818121025E+00      0.000000000000E+00
     1      0.220436640000E+09      0.198900000000E+34      0.468062351740E+13     -0.439426041982E+14     -0.158771860155E+07     -0.202512647219E+06      0.131818121025E+00      0.000000000000E+00
     1      0.221067360000E+09      0.198900000000E+34      0.367858114353E+13     -0.440643574126E+14     -0.159153770253E+07     -0.164605530602E+06      0.131818121025E+00      0.000000000000E+00
     1      0.221698080000E+09      0.198900000000E+34      0.267426714696E+13     -0.441621960424E+14     -0.159448724633E+07     -0.126666132358E+06      0.131818121025E+00      0.000000000000E+00
     1      0.222328800000E+09      0.198900000000E+34      0.166822976759E+13     -0.442361025948E+14     -0.159656862043E+07     -0.887126190549E+05      0.131818121025E+00      0.000000000000E+00
     1      0.222959520000E+09      0.198900000000E+34      0.661016324035E+12     -0.442860710213E+14     -0.159778350451E+07     -0.507630681032E+05      0.131818121025E+00      0.000000000000E+00
     1      0.223590240000E+09      0.198900000000E+34     -0.346826970257E+12     -0.443121066609E+14     -0.159813386774E+07     -0.128354672005E+05      0.131818121025E+00      0.000000000000E+00
     1      0.224220960000E+09      0.198900000000E+34     -0.135475518919E+13     -0.443142261833E+14     -0.159762196638E+07      0.250522862026E+05      0.131818121025E+00      0.000000000000E+00
     1      0.224851680000E+09      0.198900000000E+34     -0.236222487474E+13     -0.442924575328E+14     -0.159625034152E+07      0.628823854377E+05      0.131818121025E+00      0.000000000000E+00
     1      0.225482400000E+09      0.198900000000E+34     -0.336869421627E+13     -0.442468398697E+14     -0.159402181710E+07      0.100637115163E+06      0.131818121025E+00      0.000000000000E+00
     1      0.226113120000E+09      0.198900000000E+34     -0.437362322862E+13     -0.441774235138E+14     -0.159093949811E+07      0.138298851930E+06      0.131818121025E+00      0.000000000000E+00
     1      0.226743840000E+09      0.198900000000E+34     -0.537647392918E+13     -0.440842698854E+14     -0.158700676905E+07      0.175850064783E+06      0.131818121025E+00      0.000000000000E+00
     1      0.227374560000E+09      0.198900000000E+34     -0.637671051387E+13     -0.439674514475E+14     -0.158222729254E+07      0.213273315902E+06      0.131818121025E+00      0.000000000000E+00
     1      0.228005280000E+09      0.198900000000E+34     -0.737379953246E+13     -0.438270516467E+14     -0.157660500817E+07      0.250551261305E+06      0.131818121025E+00      0.000000000000E+00
     1      0.228636000000E+09      0.198900000000E+34     -0.836721006301E+13     -0.436631648536E+14     -0.157014413156E+07      0.287666651610E+06      0.131818121025E+00      0.000000000000E+00
     1      0.229266720000E+09      0.198900000000E+34     -0.935641388592E+13     -0.434758963039E+14     -0.156284915357E+07      0.324602332875E+06      0.131818121025E+00      0.000000000000E+00
     1      0.229897440000E+09      0.198900000000E+34     -0.103408856574E+14     -0.432653620369E+14     -0.155472483969E+07      0.361341247533E+06      0.131818121025E+00      0.000000000000E+00
     1      0.230528160000E+09      0.198900000000E+34     -0.113201030825E+14     -0.430316888354E+14     -0.154577622969E+07      0.397866435406E+06      0.131818121025E+00      0.000000000000E+00
     1      0.231158880000E+09      0.198900000000E+34     -0.122935470883E+14     -0.427750141639E+14     -0.153600863734E+07      0.434161034844E+06      0.131818121025E+00      0.000000000000E+00
     1      0.231789600000E+09      0.198900000000E+34     -0.132607019965E+14     -0.424954861061E+14     -0.152542765035E+07      0.470208283965E+06      0.131818121025E+00      0.000000000000E+00
     1      0.232420320000E+09      0.198900000000E+34     -0.142210556963E+14     -0.421932633018E+14     -0.151403913047E+07      0.505991522026E+06      0.131818121025E+00      0.000000000000E+00
     1      0.233051040000E+09      0.198900000000E+34     -0.151740998174E+14     -0.418685148831E+14     -0.150184921367E+07      0.541494190928E+06      0.131818121025E+00      0.000000000000E+00
     1      0.233681760000E+09      0.198900000000E+34     -0.161193299025E+14     -0.415214204091E+14     -0.148886431061E+07      0.576699836860E+06      0.131818121025E+00      0.000000000000E+00
     1      0.234312480000E+09      0.198900000000E+34     -0.170562455814E+14     -0.411521698001E+14     -0.147509110703E+07      0.611592112096E+06      0.131818121025E+00      0.000000000000E+00
     1      0.234943200000E+09      0.198900000000E+34     -0.179843507439E+14     -0.407609632701E+14     -0.146053656449E+07      0.646154776949E+06      0.131818121025E+00      0.000000000000E+00
     1      0.235573920000E+09      0.198900000000E+34     -0.189031537144E+14     -0.403480112589E+14     -0.144520792103E+07      0.680371701895E+06      0.131818121025E+00      0.000000000000E+00
     1      0.236204640000E+09      0.198900000000E+34     -0.198121674259E+14     -0.399135343614E+14     -0.142911269209E+07      0.714226869865E+06      0.131818121025E+00      0.000000000000E+00
     1      0.236835360000E+09      0.198900000000E+34     -0.207109095956E+14     -0.394577632572E+14     -0.141225867141E+07      0.747704378726E+06      0.131818121025E+00      0.000000000000E+00
     1      0.237466080000E+09      0.198900000000E+34     -0.215989029002E+14     -0.389809386368E+14     -0.139465393210E+07      0.780788443947E+06      0.131818121025E+00      0.000000000000E+00
     1      0.238096800000E+09      0.198900000000E+34     -0.224756751528E+14     -0.384833111279E+14     -0.137630682774E+07      0.813463401460E+06      0.131818121025E+00      0.000000000000E+00
     1      0.238727520000E+09      0.198900000000E+34     -0.233407594792E+14     -0.379651412182E+14     -0.135722599356E+07      0.845713710726E+06      0.131818121025E+00      0.000000000000E+00
     1      0.239358240000E+09      0.198900000000E+34     -0.241936944964E+14     -0.374266991773E+14     -0.133742034771E+07      0.877523958005E+06      0.131818121025E+00      0.000000000000E+00
     1      0.239988960000E+09      0.198900000000E+34     -0.250340244910E+14     -0.368682649763E+14     -0.131689909246E+07      0.908878859847E+06      0.131818121025E+00      0.000000000000E+00
     1      0.240619680000E+09      0.198900000000E+34     -0.258612995986E+14     -0.362901282047E+14     -0.129567171563E+07      0.939763266796E+06      0.131818121025E+00      0.000000000000E+00
     1      0.241250400000E+09      0.198900000000E+34     -0.266750759841E+14     -0.356925879856E+14     -0.127374799183E+07      0.970162167321E+06      0.131818121025E+00      0.000000000000E+00
     1      0.241881120000E+09      0.198900000000E+34     -0.274749160229E+14     -0.350759528880E+14     -0.125113798387E+07      0.100006069198E+07      0.131818121025E+00      0.000000000000E+00
     1      0.242511840000E+09      0.198900000000E+34     -0.282603884827E+14     -0.344405408362E+14     -0.122785204409E+07      0.102944411782E+07      0.131818121025E+00      0.000000000000E+00
     1      0.243142560000E+09      0.198900000000E+34     -0.290310687066E+14     -0.337866790172E+14     -0.120390081568E+07      0.105829787300E+07      0.131818121025E+00      0.000000000000E+00
     1      0.243773280000E+09      0.198900000000E+34     -0.297865387964E+14     -0.331147037841E+14     -0.117929523402E+07      0.108660754167E+07      0.131818121025E+00      0.000000000000E+00
     1      0.244404000000E+09      0.198900000000E+34     -0.305263877974E+14     -0.324249605574E+14     -0.115404652792E+07      0.111435886910E+07      0.131818121025E+00      0.000000000000E+00
     1      0.245034720000E+09      0.198900000000E+34     -0.312502118836E+14     -0.317178037221E+14     -0.112816622083E+07      0.114153776707E+07      0.131818121025E+00      0.000000000000E+00
     1      0.245665440000E+09      0.198900000000E+34     -0.319576145436E+14     -0.309935965221E+14     -0.110166613202E+07      0.116813031942E+07      0.131818121025E+00      0.000000000000E+00
     1      0.246296160000E+09      0.198900000000E+34     -0.326482067674E+14     -0.302527109507E+14     -0.107455837760E+07      0.119412278799E+07      0.131818121025E+00      0.000000000000E+00
     1      0.246926880000E+09      0.198900000000E+34     -0.333216072338E+14     -0.294955276374E+14     -0.104685537153E+07      0.121950161873E+07      0.131818121025E+00      0.000000000000E+00
     1      0.247557600000E+09      0.198900000000E+34     -0.339774424984E+14     -0.287224357306E+14     -0.101856982646E+07      0.124425344805E+07      0.131818121025E+00      0.000000000000E+00
     1      0.248188320000E+09      0.198900000000E+34     -0.346153471822E+14     -0.279338327767E+14     -0.989714754451E+06      0.126836510948E+07      0.131818121025E+00      0.000000000000E+00
     1      0.248819040000E+09      0.198900000000E+34     -0.352349641603E+14     -0.271301245943E+14     -0.960303467604E+06      0.129182364054E+07      0.131818121025E+00      0.000000000000E+00
     1      0.249449760000E+09      0.198900000000E+34     -0.358359447515E+14     -0.263117251451E+14     -0.930349578465E+06      0.131461628988E+07      0.131818121025E+00      0.000000000000E+00
     1      0.250080480000E+09      0.198900000000E+34     -0.364179489077E+14     -0.254790563988E+14     -0.899867000312E+06      0.133673052467E+07      0.131818121025E+00      0.000000000000E+00
     1      0.250711200000E+09      0.198900000000E+34     -0.369806454036E+14     -0.246325481947E+14     -0.868869947229E+06      0.135815403822E+07      0.131818121025E+00      0.000000000000E+00
     1      0.251341920000E+09      0.198900000000E+34     -0.375237120263E+14     -0.237726380975E+14     -0.837372933983E+06      0.137887475789E+07      0.131818121025E+00      0.000000000000E+00
     1      0.251972640000E+09      0.198900000000E+34     -0.380468357652E+14     -0.228997712485E+14     -0.805390775688E+06      0.139888085317E+07      0.131818121025E+00      0.000000000000E+00
     1      0.252603360000E+09      0.198900000000E+34     -0.385497130012E+14     -0.220144002116E+14     -0.772938587227E+06      0.141816074407E+07      0.131818121025E+00      0.000000000000E+00
     1      0.253234080000E+09      0.198900000000E+34     -0.390320496954E+14     -0.211169848137E+14     -0.740031782422E+06      0.143670310966E+07      0.131818121025E+00      0.000000000000E+00
     1      0.253864800000E+09      0.198900000000E+34     -0.394935615780E+14     -0.202079919806E+14     -0.706686072947E+06      0.145449689694E+07      0.131818121025E+00      0.000000000000E+00
     1      0.254495520000E+09      0.198900000000E+34     -0.399339743356E+14     -0.192878955657E+14     -0.672917466941E+06      0.147153132980E+07      0.131818121025E+00      0.000000000000E+00
     1      0.255126240000E+09      0.198900000000E+34     -0.403530237978E+14     -0.183571761747E+14     -0.638742267334E+06      0.148779591829E+07      0.131818121025E+00      0.000000000000E+00
     1      0.255756960000E+09      0.198900000000E+34     -0.407504561234E+14     -0.174163209829E+14     -0.604177069854E+06      0.150328046804E+07      0.131818121025E+00      0.000000000000E+00
     1      0.256387680000E+09      0.198900000000E+34     -0.411260279840E+14     -0.164658235481E+14     -0.569238760691E+06      0.151797508989E+07      0.131818121025E+00      0.000000000000E+00
     1      0.257018400000E+09      0.198900000000E+34     -0.414795067473E+14     -0.155061836159E+14     -0.533944513824E+06      0.153187020966E+07      0.131818121025E+00      0.000000000000E+00
     1      0.257649120000E+09      0.198900000000E+34     -0.418106706581E+14     -0.145379069194E+14     -0.498311787980E+06      0.154495657817E+07      0.131818121025E+00      0.000000000000E+00
     1      0.258279840000E+09      0.198900000000E+34     -0.421193090171E+14     -0.135615049735E+14     -0.462358323206E+06      0.155722528130E+07      0.131818121025E+00      0.000000000000E+00
     1      0.258910560000E+09      0.198900000000E+34     -0.424052223581E+14     -0.125774948609E+14     -0.426102137054E+06      0.156866775028E+07      0.131818121025E+00      0.000000000000E+00
     1      0.259541280000E+09      0.198900000000E+34     -0.426682226219E+14     -0.115863990132E+14     -0.389561520343E+06      0.157927577210E+07      0.131818121025E+00      0.000000000000E+00
     1      0.260172000000E+09      0.198900000000E+34     -0.429081333286E+14     -0.105887449850E+14     -0.352755032513E+06      0.158904149993E+07      0.131818121025E+00      0.000000000000E+00
     1      0.260802720000E+09      0.198900000000E+34     -0.431247897456E+14     -0.958506522078E+13     -0.315701496517E+06      0.159795746379E+07      0.131818121025E+00      0.000000000000E+00
     1      0.261433440000E+09      0.198900000000E+34     -0.433180390533E+14     -0.857589681597E+13     -0.278419993275E+06      0.160601658115E+07      0.131818121025E+00      0.000000000000E+00
     1      0.262064160000E+09      0.198900000000E+34     -0.434877405068E+14     -0.756178127069E+13     -0.240929855658E+06      0.161321216770E+07      0.131818121025E+00      0.000000000000E+00
     1      0.262694880000E+09      0.198900000000E+34     -0.436337655939E+14     -0.654326423691E+13     -0.203250661983E+06      0.161953794806E+07      0.131818121025E+00      0.000000000000E+00
     1      0.263325600000E+09      0.198900000000E+34     -0.437559981884E+14     -0.552089525888E+13     -0.165402229030E+06      0.162498806657E+07      0.131818121025E+00      0.000000000000E+00
     1      0.263956320000E+09      0.198900000000E+34     -0.438543347001E+14     -0.449522750667E+13     -0.127404604550E+06      0.162955709805E+07      0.131818121025E+00      0.000000000000E+00
     1      0.264587040000E+09      0.198900000000E+34     -0.439286842185E+14     -0.346681750295E+13     -0.892780592537E+05      0.163324005855E+07      0.131818121025E+00      0.000000000000E+00
     1      0.265217760000E+09      0.198900000000E+34     -0.439789686524E+14     -0.243622484306E+13     -0.510430782945E+05      0.163603241600E+07      0.131818121025E+00      0.000000000000E+00
     1      0.265848480000E+09      0.198900000000E+34     -0.440051228640E+14     -0.140401190827E+13     -0.127203522058E+05      0.163793010084E+07      0.131818121025E+00      0.000000000000E+00
     1      0.266479200000E+09      0.198900000000E+34     -0.440070947964E+14     -0.370743572465E+12      0.256692326901E+05      0.163892951652E+07      0.131818121025E+00      0.000000000000E+00
     1      0.267109920000E+09      0.198900000000E+34     -0.439848455959E+14      0.663013097896E+12      0.641046044190E+05      0.163902754983E+07      0.131818121025E+00      0.000000000000E+00
     1      0.267740640000E+09      0.198900000000E+34     -0.439383497274E+14      0.169668915021E+13      0.102564516039E+06      0.163822158119E+07      0.131818121025E+00      0.000000000000E+00
     1      0.268371360000E+09      0.198900000000E+34     -0.438675950830E+14      0.272971405868E+13      0.141027556879E+06      0.163650949460E+07      0.131818121025E+00      0.000000000000E+00
     1      0.269002080000E+09      0.198900000000E+34     -0.437725830833E+14      0.376151604345E+13      0.179472164324E+06      0.163388968751E+07      0.131818121025E+00      0.000000000000E+00
     1      0.269632800000E+09      0.198900000000E+34     -0.436533287712E+14      0.479152239604E+13      0.217876636164E+06      0.163036108036E+07      0.131818121025E+00      0.000000000000E+00
     1      0.270263520000E+09      0.198900000000E+34     -0.435098608983E+14      0.581915981061E+13      0.256219143488E+06      0.162592312590E+07      0.131818121025E+00      0.000000000000E+00
     1      0.270894240000E+09      0.198900000000E+34     -0.433422220026E+14      0.684385472117E+13      0.294477744135E+06      0.162057581816E+07      0.131818121025E+00      0.000000000000E+00
     1      0.271524960000E+09      0.198900000000E+34     -0.431504684776E+14      0.786503364437E+13      0.332630396688E+06      0.161431970116E+07      0.131818121025E+00      0.000000000000E+00
     1      0.272155680000E+09      0.198900000000E+34     -0.429346706326E+14      0.888212352765E+13      0.370654975013E+06      0.160715587713E+07      0.131818121025E+00      0.000000000000E+00
     1      0.272786400000E+09      0.198900000000E+34     -0.426949127439E+14      0.989455210265E+13      0.408529283329E+06      0.159908601448E+07      0.131818121025E+00      0.000000000000E+00
     1      0.273417120000E+09      0.198900000000E+34     -0.424312930965E+14      0.109017482435E+14      0.446231071803E+06      0.159011235525E+07      0.131818121025E+00      0.000000000000E+00
     1      0.274047840000E+09      0.198900000000E+34     -0.421439240153E+14      0.119031423295E+14      0.483738052665E+06      0.158023772208E+07      0.131818121025E+00      0.000000000000E+00
     1      0.274678560000E+09      0.198900000000E+34     -0.418329318863E+14      0.128981666130E+14      0.521027916809E+06      0.156946552480E+07      0.131818121025E+00      0.000000000000E+00
     1      0.275309280000E+09      0.198900000000E+34     -0.414984571682E+14      0.138862555900E+14      0.558078350900E+06      0.155779976634E+07      0.131818121025E+00      0.000000000000E+00
     1      0.275940000000E+09      0.198900000000E+34     -0.411406543912E+14      0.148668463753E+14      0.594867054931E+06      0.154524504824E+07      0.131818121025E+00      0.000000000000E+00
     1      0.276570720000E+09      0.198900000000E+34     -0.407596921468E+14      0.158393790813E+14      0.631371760245E+06      0.153180657546E+07      0.131818121025E+00      0.000000000000E+00
     1      0.277201440000E+09      0.198900000000E+34     -0.403557530644E+14      0.168032971987E+14      0.667570247979E+06      0.151749016065E+07      0.131818121025E+00      0.000000000000E+00
     1      0.277832160000E+09      0.198900000000E+34     -0.399290337772E+14      0.177580479806E+14      0.703440367913E+06      0.150230222770E+07      0.131818121025E+00      0.000000000000E+00
     1      0.278462880000E+09      0.198900000000E+34     -0.394797448761E+14      0.187030828287E+14      0.738960057712E+06      0.148624981470E+07      0.131818121025E+00      0.000000000000E+00
     1      0.279093600000E+09      0.198900000000E+34     -0.390081108509E+14      0.196378576807E+14      0.774107362512E+06      0.146934057614E+07      0.131818121025E+00      0.000000000000E+00
     1      0.279724320000E+09      0.198900000000E+34     -0.385143700193E+14      0.205618333995E+14      0.808860454842E+06      0.145158278436E+07      0.131818121025E+00      0.000000000000E+00
     1      0.280355040000E+09      0.198900000000E+34     -0.379987744437E+14      0.214744761634E+14      0.843197654833E+06      0.143298533036E+07      0.131818121025E+00      0.000000000000E+00
     1      0.280985760000E+09      0.198900000000E+34     -0.374615898348E+14      0.223752578555E+14      0.877097450709E+06      0.141355772366E+07      0.131818121025E+00      0.000000000000E+00
     1      0.281616480000E+09      0.198900000000E+34     -0.369030954422E+14      0.232636564545E+14      0.910538519485E+06      0.139331009151E+07      0.131818121025E+00      0.000000000000E+00
     1      0.282247200000E+09      0.198900000000E+34     -0.363235839320E+14      0.241391564238E+14      0.943499747883E+06      0.137225317722E+07      0.131818121025E+00      0.000000000000E+00
     1      0.282877920000E+09      0.198900000000E+34     -0.357233612514E+14      0.250012490994E+14      0.975960253388E+06      0.135039833758E+07      0.131818121025E+00      0.000000000000E+00
     1      0.283508640000E+09      0.198900000000E+34     -0.351027464798E+14      0.258494330770E+14      0.100789940543E+07      0.132775753954E+07      0.131818121025E+00      0.000000000000E+00
     1      0.284139360000E+09      0.198900000000E+34     -0.344620716664E+14      0.266832145955E+14      0.103929684665E+07      0.130434335593E+07      0.131818121025E+00      0.000000000000E+00
     1      0.284770080000E+09      0.198900000000E+34     -0.338016816544E+14      0.275021079188E+14      0.107013251419E+07      0.128016896033E+07      0.131818121025E+00      0.000000000000E+00
     1      0.285400800000E+09      0.198900000000E+34     -0.331219338925E+14      0.283056357137E+14      0.110038666097E+07      0.125524812097E+07      0.131818121025E+00      0.000000000000E+00
     1      0.286031520000E+09      0.198900000000E+34     -0.324231982317E+14      0.290933294238E+14      0.113003987695E+07      0.122959519385E+07      0.131818121025E+00      0.000000000000E+00
     1      0.286662240000E+09      0.198900000000E+34     -0.317058567096E+14      0.298647296390E+14      0.115907311023E+07      0.120322511478E+07      0.131818121025E+00      0.000000000000E+00
     1      0.287292960000E+09      0.198900000000E+34     -0.309703033215E+14      0.306193864602E+14      0.118746768810E+07      0.117615339063E+07      0.131818121025E+00      0.000000000000E+00
     1      0.287923680000E+09      0.198900000000E+34     -0.302169437775E+14      0.313568598574E+14      0.121520533780E+07      0.114839608961E+07      0.131818121025E+00      0.000000000000E+00
     1      0.288554400000E+09      0.198900000000E+34     -0.294461952473E+14      0.320767200226E+14      0.124226820711E+07      0.111996983056E+07      0.131818121025E+00      0.000000000000E+00
     1      0.289185120000E+09      0.198900000000E+34     -0.286584860915E+14      0.327785477150E+14      0.126863888464E+07      0.109089177144E+07      0.131818121025E+00      0.000000000000E+00
     1      0.289815840000E+09      0.198900000000E+34     -0.278542555807E+14      0.334619345993E+14      0.129430041976E+07      0.106117959686E+07      0.131818121025E+00      0.000000000000E+00
     1      0.290446560000E+09      0.198900000000E+34     -0.270339536015E+14      0.341264835757E+14      0.131923634220E+07      0.103085150463E+07      0.131818121025E+00      0.000000000000E+00
     1      0.291077280000E+09      0.198900000000E+34     -0.261980403507E+14      0.347718091012E+14      0.134343068116E+07      0.999926191530E+06      0.131818121025E+00      0.000000000000E+00
     1      0.291708000000E+09      0.198900000000E+34     -0.253469860171E+14      0.353975375025E+14      0.136686798401E+07      0.968422838164E+06      0.131818121025E+00      0.000000000000E+00
     1      0.292338720000E+09      0.198900000000E+34     -0.244812704522E+14      0.360033072779E+14      0.138953333439E+07      0.936361092924E+06      0.131818121025E+00      0.000000000000E+00
     1      0.292969440000E+09      0.198900000000E+34     -0.236013828286E+14      0.365887693904E+14      0.141141236985E+07      0.903761055156E+06      0.131818121025E+00      0.000000000000E+00
     1      0.293600160000E+09      0.198900000000E+34     -0.227078212883E+14      0.371535875490E+14      0.143249129871E+07      0.870643257493E+06      0.131818121025E+00      0.000000000000E+00
     1      0.294230880000E+09      0.198900000000E+34     -0.218010925802E+14      0.376974384791E+14      0.145275691646E+07      0.837028647408E+06      0.131818121025E+00      0.000000000000E+00
     1      0.294861600000E+09      0.198900000000E+34     -0.208817116868E+14      0.382200121815E+14      0.147219662127E+07      0.802938568004E+06      0.131818121025E+00      0.000000000000E+00
     1      0.295492320000E+09      0.198900000000E+34     -0.199502014425E+14      0.387210121784E+14      0.149079842891E+07      0.768394738076E+06      0.131818121025E+00      0.000000000000E+00
     1      0.296123040000E+09      0.198900000000E+34     -0.190070921408E+14      0.392001557471E+14      0.150855098676E+07      0.733419231487E+06      0.131818121025E+00      0.000000000000E+00
     1      0.296753760000E+09      0.198900000000E+34     -0.180529211346E+14      0.396571741412E+14      0.152544358712E+07      0.698034455882E+06      0.131818121025E+00      0.000000000000E+00
     1      0.297384480000E+09      0.198900000000E+34     -0.170882324274E+14      0.400918127970E+14      0.154146617952E+07      0.662263130785E+06      0.131818121025E+00      0.000000000000E+00
     1      0.298015200000E+09      0.198900000000E+34     -0.161135762563E+14      0.405038315271E+14      0.155660938229E+07      0.626128265125E+06      0.131818121025E+00      0.000000000000E+00
     1      0.298645920000E+09      0.198900000000E+34     -0.151295086692E+14      0.408930046993E+14      0.157086449310E+07      0.589653134230E+06      0.131818121025E+00      0.000000000000E+00
     1      0.299276640000E+09      0.198900000000E+34     -0.141365910943E+14      0.412591214006E+14      0.158422349857E+07      0.552861256328E+06      0.131818121025E+00      0.000000000000E+00
     1      0.299907360000E+09      0.198900000000E+34     -0.131353899043E+14      0.416019855872E+14      0.159667908295E+07      0.515776368619E+06      0.131818121025E+00      0.000000000000E+00
     1      0.300538080000E+09      0.198900000000E+34     -0.121264759754E+14      0.419214162183E+14      0.160822463572E+07      0.478422402946E+06      0.131818121025E+00      0.000000000000E+00
     1      0.301168800000E+09      0.198900000000E+34     -0.111104242408E+14      0.422172473752E+14      0.161885425825E+07      0.440823461135E+06      0.131818121025E+00      0.000000000000E+00
     1      0.301799520000E+09      0.198900000000E+34     -0.100878132416E+14      0.424893283645E+14      0.162856276933E+07      0.403003790041E+06      0.131818121025E+00      0.000000000000E+00
     1      0.302430240000E+09      0.198900000000E+34     -0.905922467271E+13      0.427375238059E+14      0.163734570975E+07      0.364987756360E+06      0.131818121025E+00      0.000000000000E+00
     1      0.303060960000E+09      0.198900000000E+34     -0.802524292752E+13      0.429617137032E+14      0.164519934570E+07      0.326799821260E+06      0.131818121025E+00      0.000000000000E+00
     1      0.303691680000E+09      0.198900000000E+34     -0.698645463966E+13      0.431617935006E+14      0.165212067116E+07      0.288464514878E+06      0.131818121025E+00      0.000000000000E+00
     1      0.304322400000E+09      0.198900000000E+34     -0.594344822376E+13      0.433376741216E+14      0.165810740922E+07      0.250006410753E+06      0.131818121025E+00      0.000000000000E+00
     1      0.304953120000E+09      0.198900000000E+34     -0.489681341556E+13      0.434892819926E+14      0.166315801228E+07      0.211450100232E+06      0.131818121025E+00      0.000000000000E+00
     1      0.305583840000E+09      0.198900000000E+34     -0.384714081197E+13      0.436165590499E+14      0.166727166115E+07      0.172820166911E+06      0.131818121025E+00      0.000000000000E+00
     1      0.306214560000E+09      0.198900000000E+34     -0.279502141196E+13      0.437194627311E+14      0.167044826315E+07      0.134141161176E+06      0.131818121025E+00      0.000000000000E+00
     1      0.306845280000E+09      0.198900000000E+34     -0.174104615870E+13      0.437979659500E+14      0.167268844905E+07      0.954375748762E+05      0.131818121025E+00      0.000000000000E+00
     1      0.307476000000E+09      0.198900000000E+34     -0.685805483938E+12      0.438520570555E+14      0.167399356898E+07      0.567338162070E+05      0.131818121025E+00      0.000000000000E+00
     1      0.308106720000E+09      0.198900000000E+34      0.370111144995E+12      0.438817397753E+14      0.167436568734E+07      0.180541848349E+05      0.131818121025E+00      0.000000000000E+00
     1      0.308737440000E+09      0.198900000000E+34      0.142611567473E+13      0.438870331432E+14      0.167380757660E+07     -0.205771526697E+05      0.131818121025E+00      0.000000000000E+00
     1      0.309368160000E+09      0.198900000000E+34      0.248162191139E+13      0.438679714117E+14      0.167232271015E+07     -0.591361870480E+05      0.131818121025E+00      0.000000000000E+00
     1      0.309998880000E+09      0.198900000000E+34      0.353604596138E+13      0.438246039485E+14      0.166991525412E+07     -0.975990901657E+05      0.131818121025E+00      0.000000000000E+00
     1      0.310629600000E+09      0.198900000000E+34      0.458880666696E+13      0.437569951191E+14      0.166659005826E+07     -0.135942238376E+06      0.131818121025E+00      0.000000000000E+00
     1      0.311260320000E+09      0.198900000000E+34      0.563932603582E+13      0.436652241538E+14      0.166235264586E+07     -0.174142235386E+06      0.131818121025E+00      0.000000000000E+00
     1      0.311891040000E+09      0.198900000000E+34      0.668702966426E+13      0.435493850010E+14      0.165720920282E+07     -0.212175934587E+06      0.131818121025E+00      0.000000000000E+00
     1      0.312521760000E+09      0.198900000000E+34      0.773134715322E+13      0.434095861661E+14      0.165116656575E+07     -0.250020460795E+06      0.131818121025E+00      0.000000000000E+00
     1      0.313152480000E+09      0.198900000000E+34      0.877171251676E+13      0.432459505371E+14      0.164423220934E+07     -0.287653231382E+06      0.131818121025E+00      0.000000000000E+00
     1      0.313783200000E+09      0.198900000000E+34      0.980756458239E+13      0.430586151967E+14      0.163641423283E+07     -0.325051976735E+06      0.131818121025E+00      0.000000000000E+00
     1      0.314413920000E+09      0.198900000000E+34      0.108383473828E+14      0.428477312217E+14      0.162772134578E+07     -0.362194760036E+06      0.131818121025E+00      0.000000000000E+00
     1      0.315044640000E+09      0.198900000000E+34      0.118635105385E+14      0.426134634703E+14      0.161816285311E+07     -0.399059996299E+06      0.131818121025E+00      0.000000000000E+00
     1      0.315675360000E+09      0.198900000000E+34      0.128825096307E+14      0.423559903572E+14      0.160774863938E+07     -0.435626470670E+06      0.131818121025E+00      0.000000000000E+00
