 # Tag              Time [sec]                Mass [g]             posx [code]             posy [code]             velx [code]             vely [code]             accx [code]             accy [code]
     1      0.315360000000E+06      0.198900000000E+34     -0.299130454561E+14      0.626239331884E+12      0.415671270420E+05      0.198550185791E+07      0.131818121025E+00      0.000000000000E+00
     1      0.946080000000E+06      0.198900000000E+34     -0.298606263345E+14      0.187762058430E+13      0.124628539587E+06      0.198202249759E+07      0.131818121025E+00      0.000000000000E+00
     1      0.157680000000E+07      0.198900000000E+34     -0.297558799497E+14      0.312571152574E+13      0.207471555162E+06      0.197506987414E+07      0.131818121025E+00      0.000000000000E+00
     1      0.220752000000E+07      0.198900000000E+34     -0.295989898576E+14      0.436832502247E+13      0.289951001049E+06      0.196465617120E+07      0.131818121025E+00      0.000000000000E+00
     1      0.283824000000E+07      0.198900000000E+34     -0.293902309898E+14      0.560328353935E+13      0.371922341647E+06      0.195079963758E+07      0.131818121025E+00      0.000000000000E+00
     1      0.346896000000E+07      0.198900000000E+34     -0.291299691717E+14      0.682842295568E+13      0.453241931748E+06      0.193352455524E+07      0.131818121025E+00      0.000000000000E+00
     1      0.409968000000E+07      0.198900000000E+34     -0.288186604819E+14      0.804159635759E+13      0.533767268259E+06      0.191286119673E+07      0.131818121025E+00      0.000000000000E+00
     1      0.473040000000E+07      0.198900000000E+34     -0.284568504524E+14      0.924067780026E+13      0.613357239927E+06      0.188884577219E+07      0.131818121025E+00      0.000000000000E+00
     1      0.536112000000E+07      0.198900000000E+34     -0.280451731132E+14      0.104235660334E+14      0.691872374615E+06      0.186152036585E+07      0.131818121025E+00      0.000000000000E+00
     1      0.599184000000E+07      0.198900000000E+34     -0.275843498808E+14      0.115881881834E+14      0.769175083711E+06      0.183093286228E+07      0.131818121025E+00      0.000000000000E+00
     1      0.662256000000E+07      0.198900000000E+34     -0.270751882940E+14      0.127325033858E+14      0.845129903240E+06      0.179713686252E+07      0.131818121025E+00      0.000000000000E+00
     1      0.725328000000E+07      0.198900000000E+34     -0.265185805991E+14      0.138545063618E+14      0.919603731245E+06      0.176019159011E+07      0.131818121025E+00      0.000000000000E+00
     1      0.788400000000E+07      0.198900000000E+34     -0.259155021862E+14      0.149522309321E+14      0.992466061032E+06      0.172016178733E+07      0.131818121025E+00      0.000000000000E+00
     1      0.851472000000E+07      0.198900000000E+34     -0.252670098798E+14      0.160237534625E+14      0.106358920987E+07      0.167711760173E+07      0.131818121025E+00      0.000000000000E+00
     1      0.914544000000E+07      0.198900000000E+34     -0.245742400870E+14      0.170671962347E+14      0.113284854274E+07      0.163113446323E+07      0.131818121025E+00      0.000000000000E+00
     1      0.977616000000E+07      0.198900000000E+34     -0.238384068059E+14      0.180807307370E+14      0.120012269075E+07      0.158229295191E+07      0.131818121025E+00      0.000000000000E+00
     1      0.104068800000E+08      0.198900000000E+34     -0.230607994986E+14      0.190625808686E+14      0.126529376380E+07      0.153067865681E+07      0.131818121025E+00      0.000000000000E+00
     1      0.110376000000E+08      0.198900000000E+34     -0.222427808311E+14      0.200110260515E+14      0.132824755719E+07      0.147638202596E+07      0.131818121025E+00      0.000000000000E+00
     1      0.116683200000E+08      0.198900000000E+34     -0.213857842857E+14      0.209244042463E+14      0.138887375174E+07      0.141949820788E+07      0.131818121025E+00      0.000000000000E+00
     1      0.122990400000E+08      0.198900000000E+34     -0.204913116487E+14      0.218011148643E+14      0.144706610712E+07      0.136012688481E+07      0.131818121025E+00      0.000000000000E+00
     1      0.129297600000E+08      0.198900000000E+34     -0.195609303792E+14      0.226396215724E+14      0.150272264801E+07      0.129837209807E+07      0.131818121025E+00      0.000000000000E+00
     1      0.135604800000E+08      0.198900000000E+34     -0.185962708616E+14      0.234384549855E+14      0.155574584283E+07      0.123434206570E+07      0.131818121025E+00      0.000000000000E+00
     1      0.141912000000E+08      0.198900000000E+34     -0.175990235493E+14      0.241962152411E+14      0.160604277461E+07      0.116814899288E+07      0.131818121025E+00      0.000000000000E+00
     1      0.148219200000E+08      0.198900000000E+34     -0.165709360018E+14      0.249115744528E+14      0.165352530384E+07      0.109990887523E+07      0.131818121025E+00      0.000000000000E+00
     1      0.154526400000E+08      0.198900000000E+34     -0.155138098225E+14      0.255832790371E+14      0.169811022293E+07      0.102974129560E+07      0.131818121025E+00      0.000000000000E+00
     1      0.160833600000E+08      0.198900000000E+34     -0.144294975017E+14      0.262101519100E+14      0.173971940201E+07      0.957769214484E+06      0.131818121025E+00      0.000000000000E+00
     1      0.167140800000E+08      0.198900000000E+34     -0.133198991702E+14      0.267910945500E+14      0.177827992585E+07      0.884118754547E+06      0.131818121025E+00      0.000000000000E+00
     1      0.173448000000E+08      0.198900000000E+34     -0.121869592697E+14      0.273250889229E+14      0.181372422163E+07      0.808918979628E+06      0.131818121025E+00      0.000000000000E+00
     1      0.179755200000E+08      0.198900000000E+34     -0.110326631450E+14      0.278111992658E+14      0.184599017735E+07      0.732301668558E+06      0.131818121025E+00      0.000000000000E+00
     1      0.186062400000E+08      0.198900000000E+34     -0.985903356545E+13      0.282485737270E+14      0.187502125069E+07      0.654401084232E+06      0.131818121025E+00      0.000000000000E+00
     1      0.192369600000E+08      0.198900000000E+34     -0.866812717996E+13      0.286364458588E+14      0.190076656808E+07      0.575353738333E+06      0.131818121025E+00      0.000000000000E+00
     1      0.198676800000E+08      0.198900000000E+34     -0.746203091299E+13      0.289741359606E+14      0.192318101385E+07      0.495298152111E+06      0.131818121025E+00      0.000000000000E+00
     1      0.204984000000E+08      0.198900000000E+34     -0.624285830752E+13      0.292610522698E+14      0.194222530929E+07      0.414374613639E+06      0.131818121025E+00      0.000000000000E+00
     1      0.211291200000E+08      0.198900000000E+34     -0.501274582127E+13      0.294966919991E+14      0.195786608151E+07      0.332724931974E+06      0.131818121025E+00      0.000000000000E+00
     1      0.217598400000E+08      0.198900000000E+34     -0.377384908286E+13      0.296806422172E+14      0.197007592186E+07      0.250492188657E+06      0.131818121025E+00      0.000000000000E+00
     1      0.223905600000E+08      0.198900000000E+34     -0.252833911425E+13      0.298125805730E+14      0.197883343403E+07      0.167820486974E+06      0.131818121025E+00      0.000000000000E+00
     1      0.230212800000E+08      0.198900000000E+34     -0.127839852635E+13      0.298922758597E+14      0.198412327149E+07      0.848546994369E+05      0.131818121025E+00      0.000000000000E+00
     1      0.236520000000E+08      0.198900000000E+34     -0.262176941948E+11      0.299195884207E+14      0.198593616442E+07      0.174021390718E+04      0.131818121025E+00      0.000000000000E+00
     1      0.242827200000E+08      0.198900000000E+34      0.122600908141E+13      0.298944703939E+14      0.198426893593E+07     -0.813773211766E+05      0.131818121025E+00      0.000000000000E+00
     1      0.249134400000E+08      0.198900000000E+34      0.247608741914E+13      0.298169657956E+14      0.197912450764E+07     -0.164352252032E+06      0.131818121025E+00      0.000000000000E+00
     1      0.255441600000E+08      0.198900000000E+34      0.372182670256E+13      0.296872104437E+14      0.197051189457E+07     -0.247039174773E+06      0.131818121025E+00      0.000000000000E+00
     1      0.261748800000E+08      0.198900000000E+34      0.496104391892E+13      0.295054317192E+14      0.195844618930E+07     -0.329293190216E+06      0.131818121025E+00      0.000000000000E+00
     1      0.268056000000E+08      0.198900000000E+34      0.619156748463E+13      0.292719481681E+14      0.194294853558E+07     -0.410970157794E+06      0.131818121025E+00      0.000000000000E+00
     1      0.274363200000E+08      0.198900000000E+34      0.741124105070E+13      0.289871689430E+14      0.192404609123E+07     -0.491926948150E+06      0.131818121025E+00      0.000000000000E+00
     1      0.280670400000E+08      0.198900000000E+34      0.861792728151E+13      0.286515930863E+14      0.190177198058E+07     -0.572021693954E+06      0.131818121025E+00      0.000000000000E+00
     1      0.286977600000E+08      0.198900000000E+34      0.980951160022E+13      0.282658086556E+14      0.187616523641E+07     -0.651114038507E+06      0.131818121025E+00      0.000000000000E+00
     1      0.293284800000E+08      0.198900000000E+34      0.109839058943E+14      0.278304916930E+14      0.184727073154E+07     -0.729065381703E+06      0.131818121025E+00      0.000000000000E+00
     1      0.299592000000E+08      0.198900000000E+34      0.121390521748E+14      0.273464050407E+14      0.181513910022E+07     -0.805739122906E+06      0.131818121025E+00      0.000000000000E+00
     1      0.305899200000E+08      0.198900000000E+34      0.132729261827E+14      0.268143970040E+14      0.177982664939E+07     -0.881000900327E+06      0.131818121025E+00      0.000000000000E+00
     1      0.312206400000E+08      0.198900000000E+34      0.143835409359E+14      0.262353998649E+14      0.174139526000E+07     -0.954718826482E+06      0.131818121025E+00      0.000000000000E+00
     1      0.318513600000E+08      0.198900000000E+34      0.154689502117E+14      0.256104282484E+14      0.169991227856E+07     -0.102676371930E+07      0.131818121025E+00      0.000000000000E+00
     1      0.324820800000E+08      0.198900000000E+34      0.165272519570E+14      0.249405773443E+14      0.165545039916E+07     -0.109700932852E+07      0.131818121025E+00      0.000000000000E+00
     1      0.331128000000E+08      0.198900000000E+34      0.175565916214E+14      0.242270209882E+14      0.160808753606E+07     -0.116533255690E+07      0.131818121025E+00      0.000000000000E+00
     1      0.337435200000E+08      0.198900000000E+34      0.185551654072E+14      0.234710096042E+14      0.155790668714E+07     -0.123161367594E+07      0.131818121025E+00      0.000000000000E+00
     1      0.343742400000E+08      0.198900000000E+34      0.195212234304E+14      0.226738680142E+14      0.150499578849E+07     -0.129573653573E+07      0.131818121025E+00      0.000000000000E+00
     1      0.350049600000E+08      0.198900000000E+34      0.204530727870E+14      0.218369931157E+14      0.144944756029E+07     -0.135758876843E+07      0.131818121025E+00      0.000000000000E+00
     1      0.356356800000E+08      0.198900000000E+34      0.213490805197E+14      0.209618514343E+14      0.139135934432E+07     -0.141706198520E+07      0.131818121025E+00      0.000000000000E+00
     1      0.362664000000E+08      0.198900000000E+34      0.222076764794E+14      0.200499765539E+14      0.133083293340E+07     -0.147405196619E+07      0.131818121025E+00      0.000000000000E+00
     1      0.368971200000E+08      0.198900000000E+34      0.230273560769E+14      0.191029664286E+14      0.126797439301E+07     -0.152845884308E+07      0.131818121025E+00      0.000000000000E+00
     1      0.375278400000E+08      0.198900000000E+34      0.238066829193E+14      0.181224805832E+14      0.120289387541E+07     -0.158018727419E+07      0.131818121025E+00      0.000000000000E+00
     1      0.381585600000E+08      0.198900000000E+34      0.245442913273E+14      0.171102372049E+14      0.113570542660E+07     -0.162914661145E+07      0.131818121025E+00      0.000000000000E+00
     1      0.387892800000E+08      0.198900000000E+34      0.252388887280E+14      0.160680101319E+14      0.106652678651E+07     -0.167525105935E+07      0.131818121025E+00      0.000000000000E+00
     1      0.394200000000E+08      0.198900000000E+34      0.258892579207E+14      0.149976257458E+14      0.995479182640E+06     -0.171841982522E+07      0.131818121025E+00      0.000000000000E+00
     1      0.400507200000E+08      0.198900000000E+34      0.264942592092E+14      0.139009597701E+14      0.922687117616E+06     -0.175857726082E+07      0.131818121025E+00      0.000000000000E+00
     1      0.406814400000E+08      0.198900000000E+34      0.270528323992E+14      0.127799339842E+14      0.848278151046E+06     -0.179565299494E+07      0.131818121025E+00      0.000000000000E+00
     1      0.413121600000E+08      0.198900000000E+34      0.275639986565E+14      0.116365128548E+14      0.772382675964E+06     -0.182958205667E+07      0.131818121025E+00      0.000000000000E+00
     1      0.419428800000E+08      0.198900000000E+34      0.280268622217E+14      0.104727000942E+14      0.695133690335E+06     -0.186030498929E+07      0.131818121025E+00      0.000000000000E+00
     1      0.425736000000E+08      0.198900000000E+34      0.284406119805E+14      0.929053514846E+13      0.616666563996E+06     -0.188776795445E+07      0.131818121025E+00      0.000000000000E+00
     1      0.432043200000E+08      0.198900000000E+34      0.288045228846E+14      0.809208962368E+13      0.537118801432E+06     -0.191192282650E+07      0.131818121025E+00      0.000000000000E+00
     1      0.438350400000E+08      0.198900000000E+34      0.291179572227E+14      0.687946365586E+13      0.456629800820E+06     -0.193272727684E+07      0.131818121025E+00      0.000000000000E+00
     1      0.444657600000E+08      0.198900000000E+34      0.293803657377E+14      0.565478223053E+13      0.375340609742E+06     -0.195014484810E+07      0.131818121025E+00      0.000000000000E+00
     1      0.450964800000E+08      0.198900000000E+34      0.295912885892E+14      0.442019145903E+13      0.293393678026E+06     -0.196414501801E+07      0.131818121025E+00      0.000000000000E+00
     1      0.457272000000E+08      0.198900000000E+34      0.297503561595E+14      0.317785481766E+13      0.210932608109E+06     -0.197470325292E+07      0.131818121025E+00      0.000000000000E+00
     1      0.463579200000E+08      0.198900000000E+34      0.298572897013E+14      0.192994935644E+13      0.128101903398E+06     -0.198180105075E+07      0.131818121025E+00      0.000000000000E+00
     1      0.469886400000E+08      0.198900000000E+34      0.299119018260E+14      0.678661884127E+12      0.450467150422E+05     -0.198542597342E+07      0.131818121025E+00      0.000000000000E+00
     1      0.476193600000E+08      0.198900000000E+34      0.299140968322E+14     -0.573814863964E+12     -0.380874124293E+05     -0.198557166870E+07      0.131818121025E+00      0.000000000000E+00
     1      0.482500800000E+08      0.198900000000E+34      0.298638708735E+14     -0.182528606844E+13     -0.121154796155E+06     -0.198223788126E+07      0.131818121025E+00      0.000000000000E+00
     1      0.488808000000E+08      0.198900000000E+34      0.297613119649E+14     -0.307355867202E+13     -0.204009870234E+06     -0.197543045318E+07      0.131818121025E+00      0.000000000000E+00
     1      0.495115200000E+08      0.198900000000E+34      0.296065998291E+14     -0.431644522258E+13     -0.286507440814E+06     -0.196516131368E+07      0.131818121025E+00      0.000000000000E+00
     1      0.501422400000E+08      0.198900000000E+34      0.294000055809E+14     -0.555176770643E+13     -0.368502940524E+06     -0.195144845823E+07      0.131818121025E+00      0.000000000000E+00
     1      0.507729600000E+08      0.198900000000E+34      0.291418912526E+14     -0.677736136504E+13     -0.449852681817E+06     -0.193431591701E+07      0.131818121025E+00      0.000000000000E+00
     1      0.514036800000E+08      0.198900000000E+34      0.288327091596E+14     -0.799107848849E+13     -0.530414108758E+06     -0.191379371281E+07      0.131818121025E+00      0.000000000000E+00
     1      0.520344000000E+08      0.198900000000E+34      0.284730011074E+14     -0.919079217911E+13     -0.610046046845E+06     -0.188991780838E+07      0.131818121025E+00      0.000000000000E+00
     1      0.526651200000E+08      0.198900000000E+34      0.280633974424E+14     -0.103744000786E+14     -0.688608950395E+06     -0.186273004348E+07      0.131818121025E+00      0.000000000000E+00
     1      0.532958400000E+08      0.198900000000E+34      0.276046159472E+14     -0.115398280523E+14     -0.765965147084E+06     -0.183227806148E+07      0.131818121025E+00      0.000000000000E+00
     1      0.539265600000E+08      0.198900000000E+34      0.270974605830E+14     -0.126850338235E+14     -0.841979079199E+06     -0.179861522593E+07      0.131818121025E+00      0.000000000000E+00
     1      0.545572800000E+08      0.198900000000E+34      0.265428200802E+14     -0.138080105527E+14     -0.916517541193E+06     -0.176180052703E+07      0.131818121025E+00      0.000000000000E+00
     1      0.551880000000E+08      0.198900000000E+34      0.259416663817E+14     -0.149067903544E+14     -0.989449913106E+06     -0.172189847825E+07      0.131818121025E+00      0.000000000000E+00
     1      0.558187200000E+08      0.198900000000E+34      0.252950529392E+14     -0.159794477449E+14     -0.106064838946E+07     -0.167897900326E+07      0.131818121025E+00      0.000000000000E+00
     1      0.564494400000E+08      0.198900000000E+34      0.246041128674E+14     -0.170241030174E+14     -0.112998820324E+07     -0.163311731345E+07      0.131818121025E+00      0.000000000000E+00
     1      0.570801600000E+08      0.198900000000E+34      0.238700569581E+14     -0.180389255354E+14     -0.119734784450E+07     -0.158439377608E+07      0.131818121025E+00      0.000000000000E+00
     1      0.577108800000E+08      0.198900000000E+34      0.230941715588E+14     -0.190221369409E+14     -0.126260927334E+07     -0.153289377346E+07      0.131818121025E+00      0.000000000000E+00
     1      0.583416000000E+08      0.198900000000E+34      0.222778163179E+14     -0.199720142705E+14     -0.132565812671E+07     -0.147870755335E+07      0.131818121025E+00      0.000000000000E+00
     1      0.589723200000E+08      0.198900000000E+34      0.214224218030E+14     -0.208868929751E+14     -0.138638391885E+07     -0.142193007077E+07      0.131818121025E+00      0.000000000000E+00
     1      0.596030400000E+08      0.198900000000E+34      0.205294869930E+14     -0.217651698365E+14     -0.144468023489E+07     -0.136266082164E+07      0.131818121025E+00      0.000000000000E+00
     1      0.602337600000E+08      0.198900000000E+34      0.196005766521E+14     -0.226053057769E+14     -0.150044491736E+07     -0.130100366841E+07      0.131818121025E+00      0.000000000000E+00
     1      0.608644800000E+08      0.198900000000E+34      0.186373185872E+14     -0.234058285561E+14     -0.155358024513E+07     -0.123706665804E+07      0.131818121025E+00      0.000000000000E+00
     1      0.614952000000E+08      0.198900000000E+34      0.176414007959E+14     -0.241653353514E+14     -0.160399310476E+07     -0.117096183270E+07      0.131818121025E+00      0.000000000000E+00
     1      0.621259200000E+08      0.198900000000E+34      0.166145685078E+14     -0.248824952157E+14     -0.165159515358E+07     -0.110280503337E+07      0.131818121025E+00      0.000000000000E+00
     1      0.627566400000E+08      0.198900000000E+34      0.155586211267E+14     -0.255560514101E+14     -0.169630297457E+07     -0.103271569690E+07      0.131818121025E+00      0.000000000000E+00
     1      0.633873600000E+08      0.198900000000E+34      0.144754090772E+14     -0.261848236058E+14     -0.173803822248E+07     -0.960816646678E+06      0.131818121025E+00      0.000000000000E+00
     1      0.640180800000E+08      0.198900000000E+34      0.133668305621E+14     -0.267677099531E+14     -0.177672776117E+07     -0.887233877397E+06      0.131818121025E+00      0.000000000000E+00
     1      0.646488000000E+08      0.198900000000E+34      0.122348282359E+14     -0.273036890115E+14     -0.181230379172E+07     -0.812096334279E+06      0.131818121025E+00      0.000000000000E+00
     1      0.652795200000E+08      0.198900000000E+34      0.110813858006E+14     -0.277918215404E+14     -0.184470397131E+07     -0.735535687105E+06      0.131818121025E+00      0.000000000000E+00
     1      0.659102400000E+08      0.198900000000E+34      0.990852452953E+13     -0.282312521445E+14     -0.187387152239E+07     -0.657686099479E+06      0.131818121025E+00      0.000000000000E+00
     1      0.665409600000E+08      0.198900000000E+34      0.871829972524E+13     -0.286212107728E+14     -0.189975533224E+07     -0.578683993720E+06      0.131818121025E+00      0.000000000000E+00
     1      0.671716800000E+08      0.198900000000E+34      0.751279711784E+13     -0.289610140684E+14     -0.192231004250E+07     -0.498667811804E+06      0.131818121025E+00      0.000000000000E+00
     1      0.678024000000E+08      0.198900000000E+34      0.629412921000E+13     -0.292500665658E+14     -0.194149612868E+07     -0.417777772756E+06      0.131818121025E+00      0.000000000000E+00
     1      0.684331200000E+08      0.198900000000E+34      0.506443157506E+13     -0.294878617341E+14     -0.195727996940E+07     -0.336155626931E+06      0.131818121025E+00      0.000000000000E+00
     1      0.690638400000E+08      0.198900000000E+34      0.382585911465E+13     -0.296739828650E+14     -0.196963390533E+07     -0.253944407619E+06      0.131818121025E+00      0.000000000000E+00
     1      0.696945600000E+08      0.198900000000E+34      0.258058228252E+13     -0.298081038031E+14     -0.197853628763E+07     -0.171288180390E+06      0.131818121025E+00      0.000000000000E+00
     1      0.703252800000E+08      0.198900000000E+34      0.133078328102E+13     -0.298899895170E+14     -0.198397151593E+07     -0.883317906400E+05      0.131818121025E+00      0.000000000000E+00
     1      0.709560000000E+08      0.198900000000E+34      0.786522370875E+11     -0.299194965116E+14     -0.198593006561E+07     -0.522060976262E+04      0.131818121025E+00      0.000000000000E+00
     1      0.715867200000E+08      0.198900000000E+34     -0.117361663571E+13     -0.298965730794E+14     -0.198440850456E+07      0.778997195940E+05      0.131818121025E+00      0.000000000000E+00
     1      0.722174400000E+08      0.198900000000E+34     -0.242382888228E+13     -0.298212593910E+14     -0.197940949914E+07      0.160883538751E+06      0.131818121025E+00      0.000000000000E+00
     1      0.728481600000E+08      0.198900000000E+34     -0.366979365153E+13     -0.296936874249E+14     -0.197094180952E+07      0.243585428246E+06      0.131818121025E+00      0.000000000000E+00
     1      0.734788800000E+08      0.198900000000E+34     -0.490932753558E+13     -0.295140807361E+14     -0.195902027434E+07      0.325860462669E+06      0.131818121025E+00      0.000000000000E+00
     1      0.741096000000E+08      0.198900000000E+34     -0.614025839591E+13     -0.292827540644E+14     -0.194366578470E+07      0.407564464621E+06      0.131818121025E+00      0.000000000000E+00
     1      0.747403200000E+08      0.198900000000E+34     -0.736042916983E+13     -0.290001127827E+14     -0.192490524756E+07      0.488554257373E+06      0.131818121025E+00      0.000000000000E+00
     1      0.753710400000E+08      0.198900000000E+34     -0.856770165041E+13     -0.286666521871E+14     -0.190277153857E+07      0.568687915764E+06      0.131818121025E+00      0.000000000000E+00
     1      0.760017600000E+08      0.198900000000E+34     -0.975996023350E+13     -0.282829566282E+14     -0.187730344448E+07      0.647825014906E+06      0.131818121025E+00      0.000000000000E+00
     1      0.766324800000E+08      0.198900000000E+34     -0.109351156251E+14     -0.278496984878E+14     -0.184854559515E+07      0.725826876270E+06      0.131818121025E+00      0.000000000000E+00
     1      0.772632000000E+08      0.198900000000E+34     -0.120911085024E+14     -0.273676370003E+14     -0.181654838537E+07      0.802556810695E+06      0.131818121025E+00      0.000000000000E+00
     1      0.778939200000E+08      0.198900000000E+34     -0.132259131228E+14     -0.268376169222E+14     -0.178136788650E+07      0.877880357925E+06      0.131818121025E+00      0.000000000000E+00
     1      0.785246400000E+08      0.198900000000E+34     -0.143375408737E+14     -0.262605670519E+14     -0.174306574827E+07      0.951665522234E+06      0.131818121025E+00      0.000000000000E+00
     1      0.791553600000E+08      0.198900000000E+34     -0.154240437571E+14     -0.256374986018E+14     -0.170170909072E+07      0.102378300373E+07      0.131818121025E+00      0.000000000000E+00
     1      0.797860800000E+08      0.198900000000E+34     -0.164835178035E+14     -0.249695034269E+14     -0.165737038655E+07      0.109410642495E+07      0.131818121025E+00      0.000000000000E+00
     1      0.804168000000E+08      0.198900000000E+34     -0.175141064083E+14     -0.242577521107E+14     -0.161012733418E+07      0.116251255230E+07      0.131818121025E+00      0.000000000000E+00
     1      0.810475200000E+08      0.198900000000E+34     -0.185140035851E+14     -0.235034919144E+14     -0.156006272154E+07      0.122888151202E+07      0.131818121025E+00      0.000000000000E+00
     1      0.816782400000E+08      0.198900000000E+34     -0.194814571310E+14     -0.227080445909E+14     -0.150726428103E+07      0.129309700027E+07      0.131818121025E+00      0.000000000000E+00
     1      0.823089600000E+08      0.198900000000E+34     -0.204147716964E+14     -0.218728040689E+14     -0.145182453575E+07      0.135504648688E+07      0.131818121025E+00      0.000000000000E+00
     1      0.829396800000E+08      0.198900000000E+34     -0.213123117564E+14     -0.209992340100E+14     -0.139384063740E+07      0.141462141262E+07      0.131818121025E+00      0.000000000000E+00
     1      0.835704000000E+08      0.198900000000E+34     -0.221725044769E+14     -0.200888652438E+14     -0.133341419598E+07      0.147171737939E+07      0.131818121025E+00      0.000000000000E+00
     1      0.842011200000E+08      0.198900000000E+34     -0.229938424704E+14     -0.191432930853E+14     -0.127065110178E+07      0.152623433316E+07      0.131818121025E+00      0.000000000000E+00
     1      0.848318400000E+08      0.198900000000E+34     -0.237748864381E+14     -0.181641745393E+14     -0.120566133982E+07      0.157807673933E+07      0.131818121025E+00      0.000000000000E+00
     1      0.854625600000E+08      0.198900000000E+34     -0.245142676915E+14     -0.171532253970E+14     -0.113855879705E+07      0.162715375015E+07      0.131818121025E+00      0.000000000000E+00
     1      0.860932800000E+08      0.198900000000E+34     -0.252106905511E+14     -0.161122172287E+14     -0.106946106285E+07      0.167337936388E+07      0.131818121025E+00      0.000000000000E+00
     1      0.867240000000E+08      0.198900000000E+34     -0.258629346174E+14     -0.150429742798E+14     -0.998489222952E+06      0.171667257552E+07      0.131818121025E+00      0.000000000000E+00
     1      0.873547200000E+08      0.198900000000E+34     -0.264698569085E+14     -0.139473702738E+14     -0.925767647211E+06      0.175695751878E+07      0.131818121025E+00      0.000000000000E+00
     1      0.879854400000E+08      0.198900000000E+34     -0.270303938641E+14     -0.128273251288E+14     -0.851423771706E+06      0.179416359899E+07      0.131818121025E+00      0.000000000000E+00
     1      0.886161600000E+08      0.198900000000E+34     -0.275435632085E+14     -0.116848015934E+14     -0.775587875402E+06      0.182822561684E+07      0.131818121025E+00      0.000000000000E+00
     1      0.892468800000E+08      0.198900000000E+34     -0.280084656724E+14     -0.105218018066E+14     -0.698392851860E+06      0.185908388263E+07      0.131818121025E+00      0.000000000000E+00
     1      0.898776000000E+08      0.198900000000E+34     -0.284242865684E+14     -0.934036378990E+13     -0.619973976347E+06      0.188668432083E+07      0.131818121025E+00      0.000000000000E+00
     1      0.905083200000E+08      0.198900000000E+34     -0.287902972190E+14     -0.814255787557E+13     -0.540468668794E+06      0.191097856492E+07      0.131818121025E+00      0.000000000000E+00
     1      0.911390400000E+08      0.198900000000E+34     -0.291058562332E+14     -0.693048307870E+13     -0.460016252973E+06      0.193192404206E+07      0.131818121025E+00      0.000000000000E+00
     1      0.917697600000E+08      0.198900000000E+34     -0.293704106306E+14     -0.570626341894E+13     -0.378757712353E+06      0.194948404774E+07      0.131818121025E+00      0.000000000000E+00
     1      0.924004800000E+08      0.198900000000E+34     -0.295834968105E+14     -0.447204419839E+13     -0.296835443045E+06      0.196362781011E+07      0.131818121025E+00      0.000000000000E+00
     1      0.930312000000E+08      0.198900000000E+34     -0.297447413644E+14     -0.322998824223E+13     -0.214393004265E+06      0.197433054387E+07      0.131818121025E+00      0.000000000000E+00
     1      0.936619200000E+08      0.198900000000E+34     -0.298538617298E+14     -0.198227210857E+13     -0.131574866765E+06      0.198157349374E+07      0.131818121025E+00      0.000000000000E+00
     1      0.942926400000E+08      0.198900000000E+34     -0.299106666862E+14     -0.731082274359E+12     -0.485261596663E+05      0.198534396728E+07      0.131818121025E+00      0.000000000000E+00
     1      0.949233600000E+08      0.198900000000E+34     -0.299150566894E+14      0.521388696231E+12      0.346075838642E+05      0.198563535719E+07      0.131818121025E+00      0.000000000000E+00
     1      0.955540800000E+08      0.198900000000E+34     -0.298670240465E+14      0.177294599397E+13      0.117680681643E+06      0.198244715283E+07      0.131818121025E+00      0.000000000000E+00
     1      0.961848000000E+08      0.198900000000E+34     -0.297666529291E+14      0.302139641073E+13      0.200547557761E+06      0.197578494117E+07      0.131818121025E+00      0.000000000000E+00
     1      0.968155200000E+08      0.198900000000E+34     -0.296141192258E+14      0.426455218284E+13      0.283062997689E+06      0.196566039695E+07      0.131818121025E+00      0.000000000000E+00
     1      0.974462400000E+08      0.198900000000E+34     -0.294096902343E+14      0.550023482487E+13      0.365082402748E+06      0.195209126225E+07      0.131818121025E+00      0.000000000000E+00
     1      0.980769600000E+08      0.198900000000E+34     -0.291537241923E+14      0.672627894717E+13      0.446462043502E+06      0.193510131540E+07      0.131818121025E+00      0.000000000000E+00
     1      0.987076800000E+08      0.198900000000E+34     -0.288466696506E+14      0.794053605049E+13      0.527059311629E+06      0.191472032929E+07      0.131818121025E+00      0.000000000000E+00
     1      0.993384000000E+08      0.198900000000E+34     -0.284890646863E+14      0.914087829095E+13      0.606732969822E+06      0.189098401923E+07      0.131818121025E+00      0.000000000000E+00
     1      0.999691200000E+08      0.198900000000E+34     -0.280815359605E+14      0.103252022088E+14      0.685343399292E+06      0.186393398032E+07      0.131818121025E+00      0.000000000000E+00
     1      0.100599840000E+09      0.198900000000E+34     -0.276247976197E+14      0.114914324146E+14      0.762752844437E+06      0.183361761461E+07      0.131818121025E+00      0.000000000000E+00
     1      0.101230560000E+09      0.198900000000E+34     -0.271196500446E+14      0.126375252260E+14      0.838825654236E+06      0.180008804799E+07      0.131818121025E+00      0.000000000000E+00
     1      0.101861280000E+09      0.198900000000E+34     -0.265669784472E+14      0.137614722491E+14      0.913428519967E+06      0.176340403710E+07      0.131818121025E+00      0.000000000000E+00
     1      0.102492000000E+09      0.198900000000E+34     -0.259677513201E+14      0.148613038978E+14      0.986430708816E+06      0.172362986639E+07      0.131818121025E+00      0.000000000000E+00
     1      0.103122720000E+09      0.198900000000E+34     -0.253230187389E+14      0.159350928456E+14      0.105770429296E+07      0.168083523546E+07      0.131818121025E+00      0.000000000000E+00
     1      0.103753440000E+09      0.198900000000E+34     -0.246339105221E+14      0.169809574025E+14      0.112712437377E+07      0.163509513690E+07      0.131818121025E+00      0.000000000000E+00
     1      0.104384160000E+09      0.198900000000E+34     -0.239016342517E+14      0.179970648131E+14      0.119456930065E+07      0.158648972489E+07      0.131818121025E+00      0.000000000000E+00
     1      0.105014880000E+09      0.198900000000E+34     -0.231274731561E+14      0.189816344675E+14      0.125992088423E+07      0.153510417475E+07      0.131818121025E+00      0.000000000000E+00
     1      0.105645600000E+09      0.198900000000E+34     -0.223127838625E+14      0.199329410223E+14      0.132306460348E+07      0.148102853365E+07      0.131818121025E+00      0.000000000000E+00
     1      0.106276320000E+09      0.198900000000E+34     -0.214589940187E+14      0.208493174239E+14      0.138388980642E+07      0.142435756284E+07      0.131818121025E+00      0.000000000000E+00
     1      0.106907040000E+09      0.198900000000E+34     -0.205675997917E+14      0.217291578295E+14      0.144228990397E+07      0.136519057159E+07      0.131818121025E+00      0.000000000000E+00
     1      0.107537760000E+09      0.198900000000E+34     -0.196401632461E+14      0.225709204214E+14      0.149816255676E+07      0.130363124314E+07      0.131818121025E+00      0.000000000000E+00
     1      0.108168480000E+09      0.198900000000E+34     -0.186783096060E+14      0.233731301089E+14      0.155140985450E+07      0.123978745303E+07      0.131818121025E+00      0.000000000000E+00
     1      0.108799200000E+09      0.198900000000E+34     -0.176837244078E+14      0.241343811131E+14      0.160193848751E+07      0.117377108005E+07      0.131818121025E+00      0.000000000000E+00
     1      0.109429920000E+09      0.198900000000E+34     -0.166581505459E+14      0.248533394304E+14      0.164965991025E+07      0.110569781019E+07      0.131818121025E+00      0.000000000000E+00
     1      0.110060640000E+09      0.198900000000E+34     -0.156033852189E+14      0.255287451703E+14      0.169449049650E+07      0.103568693391E+07      0.131818121025E+00      0.000000000000E+00
     1      0.110691360000E+09      0.198900000000E+34     -0.145212767798E+14      0.261594147630E+14      0.173635168587E+07      0.963861137100E+06      0.131818121025E+00      0.000000000000E+00
     1      0.111322080000E+09      0.198900000000E+34     -0.134137214976E+14      0.267442430336E+14      0.177517012153E+07      0.890346286084E+06      0.131818121025E+00      0.000000000000E+00
     1      0.111952800000E+09      0.198900000000E+34     -0.122826602336E+14      0.272822051388E+14      0.181087777869E+07      0.815271207062E+06      0.131818121025E+00      0.000000000000E+00
     1      0.112583520000E+09      0.198900000000E+34     -0.111300750406E+14      0.277723583627E+14      0.184341208385E+07      0.738767460347E+06      0.131818121025E+00      0.000000000000E+00
     1      0.113214240000E+09      0.198900000000E+34     -0.995798568973E+13      0.282138437690E+14      0.187271602443E+07      0.660969109828E+06      0.131818121025E+00      0.000000000000E+00
     1      0.113844960000E+09      0.198900000000E+34     -0.876844613084E+13      0.286058877060E+14      0.189873824868E+07      0.582012488035E+06      0.131818121025E+00      0.000000000000E+00
     1      0.114475680000E+09      0.198900000000E+34     -0.756354089317E+13      0.289478031624E+14      0.192143315570E+07      0.502035957236E+06      0.131818121025E+00      0.000000000000E+00
     1      0.115106400000E+09      0.198900000000E+34     -0.634538143258E+13      0.292389909714E+14      0.194076097532E+07      0.421179666967E+06      0.131818121025E+00      0.000000000000E+00
     1      0.115737120000E+09      0.198900000000E+34     -0.511610243138E+13      0.294789408601E+14      0.195668783776E+07      0.339585308442E+06      0.131818121025E+00      0.000000000000E+00
     1      0.116367840000E+09      0.198900000000E+34     -0.387785805760E+13      0.296672323444E+14      0.196918583308E+07      0.257395866255E+06      0.131818121025E+00      0.000000000000E+00
     1      0.116998560000E+09      0.198900000000E+34     -0.263281819001E+13      0.298035354654E+14      0.197823305997E+07      0.174755367811E+06      0.131818121025E+00      0.000000000000E+00
     1      0.117629280000E+09      0.198900000000E+34     -0.138316461573E+13      0.298876113678E+14      0.198381366424E+07      0.918086309425E+05      0.131818121025E+00      0.000000000000E+00
     1      0.118260000000E+09      0.198900000000E+34     -0.131087206842E+12      0.299193127184E+14      0.198591786653E+07      0.870101012776E+04      0.131818121025E+00      0.000000000000E+00
     1      0.118890720000E+09      0.198900000000E+34      0.112121991708E+13      0.298985839641E+14      0.198454197945E+07     -0.744218582243E+05      0.131818121025E+00      0.000000000000E+00
     1      0.119521440000E+09      0.198900000000E+34      0.237156223391E+13      0.298254614298E+14      0.197968841409E+07     -0.157414310985E+06      0.131818121025E+00      0.000000000000E+00
     1      0.120152160000E+09      0.198900000000E+34      0.361774866461E+13      0.297000732540E+14      0.197136567575E+07     -0.240130913563E+06      0.131818121025E+00      0.000000000000E+00
     1      0.120782880000E+09      0.198900000000E+34      0.485759541285E+13      0.295226391650E+14      0.195958834907E+07     -0.322426714764E+06      0.131818121025E+00      0.000000000000E+00
     1      0.121413600000E+09      0.198900000000E+34      0.608892979187E+13      0.292934700953E+14      0.194437707242E+07     -0.404157500795E+06      0.131818121025E+00      0.000000000000E+00
     1      0.122044320000E+09      0.198900000000E+34      0.730959403181E+13      0.290129676368E+14      0.192575850179E+07     -0.485180047991E+06      0.131818121025E+00      0.000000000000E+00
     1      0.122675040000E+09      0.198900000000E+34      0.851744906100E+13      0.286816233374E+14      0.190376526405E+07     -0.565352373787E+06      0.131818121025E+00      0.000000000000E+00
     1      0.123305760000E+09      0.198900000000E+34      0.971037825441E+13      0.283000178394E+14      0.187843589979E+07     -0.644533985537E+06      0.131818121025E+00      0.000000000000E+00
     1      0.123936480000E+09      0.198900000000E+34      0.108862911428E+14      0.278688198617E+14      0.184981479575E+07     -0.722586126701E+06      0.131818121025E+00      0.000000000000E+00
     1      0.124567200000E+09      0.198900000000E+34      0.120431270760E+14      0.273887850286E+14      0.181795210709E+07     -0.799372020009E+06      0.131818121025E+00      0.000000000000E+00
     1      0.125197920000E+09      0.198900000000E+34      0.131788588341E+14      0.268607545451E+14      0.178290366943E+07     -0.874757107137E+06      0.131818121025E+00      0.000000000000E+00
     1      0.125828640000E+09      0.198900000000E+34      0.142914961795E+14      0.262856537229E+14      0.174473090109E+07     -0.948609284515E+06      0.131818121025E+00      0.000000000000E+00
     1      0.126459360000E+09      0.198900000000E+34      0.153790893452E+14      0.256644903591E+14      0.170350069537E+07     -0.102079913482E+07      0.131818121025E+00      0.000000000000E+00
     1      0.127090080000E+09      0.198900000000E+34      0.164397324510E+14      0.249983529701E+14      0.165928530341E+07     -0.109120015375E+07      0.131818121025E+00      0.000000000000E+00
     1      0.127720800000E+09      0.198900000000E+34      0.174715668436E+14      0.242884088839E+14      0.161216220751E+07     -0.115968897174E+07      0.131818121025E+00      0.000000000000E+00
     1      0.128351520000E+09      0.198900000000E+34      0.184727843535E+14      0.235359021947E+14      0.156221398541E+07     -0.122614557011E+07      0.131818121025E+00      0.000000000000E+00
     1      0.128982240000E+09      0.198900000000E+34      0.194416304639E+14      0.227421515826E+14      0.150952816553E+07     -0.129045349145E+07      0.131818121025E+00      0.000000000000E+00
     1      0.129612960000E+09      0.198900000000E+34      0.203764073850E+14      0.219085480031E+14      0.145419707363E+07     -0.135250004360E+07      0.131818121025E+00      0.000000000000E+00
     1      0.130243680000E+09      0.198900000000E+34      0.212754770294E+14      0.210365522490E+14      0.139631767099E+07     -0.141217649723E+07      0.131818121025E+00      0.000000000000E+00
     1      0.130874400000E+09      0.198900000000E+34      0.221372638822E+14      0.201276923912E+14      0.133599138451E+07     -0.146937827630E+07      0.131818121025E+00      0.000000000000E+00
     1      0.131505120000E+09      0.198900000000E+34      0.229602577625E+14      0.191835611006E+14      0.127332392897E+07     -0.152400514139E+07      0.131818121025E+00      0.000000000000E+00
     1      0.132135840000E+09      0.198900000000E+34      0.237430164697E+14      0.182058128571E+14      0.120842512177E+07     -0.157596136526E+07      0.131818121025E+00      0.000000000000E+00
     1      0.132766560000E+09      0.198900000000E+34      0.244841683103E+14      0.171961610504E+14      0.114140869050E+07     -0.162515590070E+07      0.131818121025E+00      0.000000000000E+00
     1      0.133397280000E+09      0.198900000000E+34      0.251824145023E+14      0.161563749776E+14      0.107239207364E+07     -0.167150254003E+07      0.131818121025E+00      0.000000000000E+00
     1      0.134028000000E+09      0.198900000000E+34      0.258365314506E+14      0.150882767424E+14      0.100149621475E+07     -0.171492006616E+07      0.131818121025E+00      0.000000000000E+00
     1      0.134658720000E+09      0.198900000000E+34      0.264453728915E+14      0.139937380623E+14      0.928845350573E+06     -0.175533239494E+07      0.131818121025E+00      0.000000000000E+00
     1      0.135289440000E+09      0.198900000000E+34      0.270078719015E+14      0.128746769888E+14      0.854566793257E+06     -0.179266870848E+07      0.131818121025E+00      0.000000000000E+00
     1      0.135920160000E+09      0.198900000000E+34      0.275230427666E+14      0.117330545458E+14      0.778790707313E+06     -0.182686357924E+07      0.131818121025E+00      0.000000000000E+00
     1      0.136550880000E+09      0.198900000000E+34      0.279899827100E+14      0.105708712935E+14      0.701649881492E+06     -0.185785708470E+07      0.131818121025E+00      0.000000000000E+00
     1      0.137181600000E+09      0.198900000000E+34      0.284078734739E+14      0.939016382232E+13      0.623279496093E+06     -0.188559491235E+07      0.131818121025E+00      0.000000000000E+00
     1      0.137812320000E+09      0.198900000000E+34      0.287759827535E+14      0.819300118450E+13      0.543816886077E+06     -0.191002845489E+07      0.131818121025E+00      0.000000000000E+00
     1      0.138443040000E+09      0.198900000000E+34      0.290936654802E+14      0.698148126787E+13      0.463401300396E+06     -0.193111489538E+07      0.131818121025E+00      0.000000000000E+00
     1      0.139073760000E+09      0.198900000000E+34      0.293603649521E+14      0.575772711975E+13      0.382173657986E+06     -0.194881728229E+07      0.131818121025E+00      0.000000000000E+00
     1      0.139704480000E+09      0.198900000000E+34      0.295756138094E+14      0.452388322652E+13      0.300276300815E+06     -0.196310459426E+07      0.131818121025E+00      0.000000000000E+00
     1      0.140335200000E+09      0.198900000000E+34      0.297390348537E+14      0.328211175567E+13      0.217852744450E+06     -0.197395179444E+07      0.131818121025E+00      0.000000000000E+00
     1      0.140965920000E+09      0.198900000000E+34      0.298503417086E+14      0.203458876685E+13      0.135047426558E+06     -0.198133987436E+07      0.131818121025E+00      0.000000000000E+00
     1      0.141596640000E+09      0.198900000000E+34      0.299093393219E+14      0.783500398566E+12      0.520054538012E+05     -0.198525588729E+07      0.131818121025E+00      0.000000000000E+00
     1      0.142227360000E+09      0.198900000000E+34      0.299159243071E+14     -0.468960962766E+12     -0.311276524494E+05     -0.198569297087E+07      0.131818121025E+00      0.000000000000E+00
     1      0.142858080000E+09      0.198900000000E+34      0.298700851248E+14     -0.172060052472E+13     -0.114206211122E+06     -0.198265035915E+07      0.131818121025E+00      0.000000000000E+00
     1      0.143488800000E+09      0.198900000000E+34      0.297719021027E+14     -0.296922493496E+13     -0.197084636732E+06     -0.197613338397E+07      0.131818121025E+00      0.000000000000E+00
     1      0.144119520000E+09      0.198900000000E+34      0.296215472953E+14     -0.421264612487E+13     -0.279617694505E+06     -0.196615346556E+07      0.131818121025E+00      0.000000000000E+00
     1      0.144750240000E+09      0.198900000000E+34      0.294192841817E+14     -0.544868514388E+13     -0.361660754886E+06     -0.195272809256E+07      0.131818121025E+00      0.000000000000E+00
     1      0.145380960000E+09      0.198900000000E+34      0.291654672045E+14     -0.667517597778E+13     -0.443070046979E+06     -0.193588079137E+07      0.131818121025E+00      0.000000000000E+00
     1      0.146011680000E+09      0.198900000000E+34      0.288605411484E+14     -0.788996934447E+13     -0.523702910496E+06     -0.191564108493E+07      0.131818121025E+00      0.000000000000E+00
     1      0.146642400000E+09      0.198900000000E+34      0.285050403606E+14     -0.909093646029E+13     -0.603418045749E+06     -0.189204444096E+07      0.131818121025E+00      0.000000000000E+00
     1      0.147273120000E+09      0.198900000000E+34      0.280995878148E+14     -0.102759727705E+14     -0.682075761261E+06     -0.186513220982E+07      0.131818121025E+00      0.000000000000E+00
     1      0.147903840000E+09      0.198900000000E+34      0.276448940194E+14     -0.114430016371E+14     -0.759538218561E+06     -0.183495155207E+07      0.131818121025E+00      0.000000000000E+00
     1      0.148534560000E+09      0.198900000000E+34      0.271417557721E+14     -0.125899779783E+14     -0.835669673728E+06     -0.180155535579E+07      0.131818121025E+00      0.000000000000E+00
     1      0.149165280000E+09      0.198900000000E+34      0.265910547641E+14     -0.137148918517E+14     -0.910336715267E+06     -0.176500214391E+07      0.131818121025E+00      0.000000000000E+00
     1      0.149796000000E+09      0.198900000000E+34      0.259937560346E+14     -0.148157719771E+14     -0.983408497898E+06     -0.172535597167E+07      0.131818121025E+00      0.000000000000E+00
     1      0.150426720000E+09      0.198900000000E+34      0.253509062800E+14     -0.158906891905E+14     -0.105475697185E+07     -0.168268631438E+07      0.131818121025E+00      0.000000000000E+00
     1      0.151057440000E+09      0.198900000000E+34      0.246636320195E+14     -0.169377598248E+14     -0.112425710723E+07     -0.163706794563E+07      0.131818121025E+00      0.000000000000E+00
     1      0.151688160000E+09      0.198900000000E+34      0.239331376211E+14     -0.179551490109E+14     -0.119178711318E+07     -0.158858080628E+07      0.131818121025E+00      0.000000000000E+00
     1      0.152318880000E+09      0.198900000000E+34      0.231607031909E+14     -0.189410738930E+14     -0.125722865122E+07     -0.153730986441E+07      0.131818121025E+00      0.000000000000E+00
     1      0.152949600000E+09      0.198900000000E+34      0.223476823304E+14     -0.198938067527E+14     -0.132046704271E+07     -0.148334496634E+07      0.131818121025E+00      0.000000000000E+00
     1      0.153580320000E+09      0.198900000000E+34      0.214954997635E+14     -0.208116780368E+14     -0.138139146973E+07     -0.142678067928E+07      0.131818121025E+00      0.000000000000E+00
     1      0.154211040000E+09      0.198900000000E+34      0.206056488410E+14     -0.216930792830E+14     -0.143989516934E+07     -0.136771612554E+07      0.131818121025E+00      0.000000000000E+00
     1      0.154841760000E+09      0.198900000000E+34      0.196796889227E+14     -0.225364659385E+14     -0.149587562063E+07     -0.130625480886E+07      0.131818121025E+00      0.000000000000E+00
     1      0.155472480000E+09      0.198900000000E+34      0.187192426454E+14     -0.233403600665E+14     -0.154923472438E+07     -0.124250443303E+07      0.131818121025E+00      0.000000000000E+00
     1      0.156103200000E+09      0.198900000000E+34      0.177259930791E+14     -0.241033529364E+14     -0.159987897500E+07     -0.117657671316E+07      0.131818121025E+00      0.000000000000E+00
     1      0.156733920000E+09      0.198900000000E+34      0.167016807779E+14     -0.248241074921E+14     -0.164771962434E+07     -0.110858717987E+07      0.131818121025E+00      0.000000000000E+00
     1      0.157364640000E+09      0.198900000000E+34      0.156481007296E+14     -0.255013606955E+14     -0.169267283726E+07     -0.103865497689E+07      0.131818121025E+00      0.000000000000E+00
     1      0.157995360000E+09      0.198900000000E+34      0.145670992102E+14     -0.261339257393E+14     -0.173465983848E+07     -0.966902652264E+06      0.131818121025E+00      0.000000000000E+00
     1      0.158626080000E+09      0.198900000000E+34      0.134605705490E+14     -0.267206941271E+14     -0.177360705069E+07     -0.893455943561E+06      0.131818121025E+00      0.000000000000E+00
     1      0.159256800000E+09      0.198900000000E+34      0.123304538082E+14     -0.272606376157E+14     -0.180944622345E+07     -0.818443557574E+06      0.131818121025E+00      0.000000000000E+00
     1      0.159887520000E+09      0.198900000000E+34      0.111787293856E+14     -0.277528100172E+14     -0.184211455278E+07     -0.741996944759E+06      0.131818121025E+00      0.000000000000E+00
     1      0.160518240000E+09      0.198900000000E+34      0.100074155439E+14     -0.281963488568E+14     -0.187155479126E+07     -0.664250068888E+06      0.131818121025E+00      0.000000000000E+00
     1      0.161148960000E+09      0.198900000000E+34      0.881856487394E+13     -0.285904768846E+14     -0.189771534830E+07     -0.585339172292E+06      0.131818121025E+00      0.000000000000E+00
     1      0.161779680000E+09      0.198900000000E+34      0.761426069789E+13     -0.289345034372E+14     -0.192055038058E+07     -0.505402537113E+06      0.131818121025E+00      0.000000000000E+00
     1      0.162410400000E+09      0.198900000000E+34      0.639661341829E+13     -0.292278256481E+14     -0.194001987237E+07     -0.424580242978E+06      0.131818121025E+00      0.000000000000E+00
     1      0.163041120000E+09      0.198900000000E+34      0.516775681995E+13     -0.294699295045E+14     -0.195608970567E+07     -0.343013921531E+06      0.131818121025E+00      0.000000000000E+00
     1      0.163671840000E+09      0.198900000000E+34      0.392984433069E+13     -0.296603907476E+14     -0.196873171996E+07     -0.260846508233E+06      0.131818121025E+00      0.000000000000E+00
     1      0.164302560000E+09      0.198900000000E+34      0.268504524772E+13     -0.297988756163E+14     -0.197792376159E+07     -0.178221991892E+06      0.131818121025E+00      0.000000000000E+00
     1      0.164933280000E+09      0.198900000000E+34      0.143554093622E+13     -0.298851414321E+14     -0.198364972259E+07     -0.952851623325E+05      0.131818121025E+00      0.000000000000E+00
     1      0.165564000000E+09      0.198900000000E+34      0.183521006711E+12     -0.299190370241E+14     -0.198589956888E+07     -0.121813566732E+05      0.131818121025E+00      0.000000000000E+00
     1      0.166194720000E+09      0.198900000000E+34     -0.106882052195E+13     -0.299005029944E+14     -0.198466935786E+07      0.709437953622E+05      0.131818121025E+00      0.000000000000E+00
     1      0.166825440000E+09      0.198900000000E+34     -0.231928906733E+13     -0.298295718217E+14     -0.197996124535E+07      0.153944626643E+06      0.131818121025E+00      0.000000000000E+00
     1      0.167456160000E+09      0.198900000000E+34     -0.356569332922E+13     -0.297063678046E+14     -0.197178348177E+07      0.236675687896E+06      0.131818121025E+00      0.000000000000E+00
     1      0.168086880000E+09      0.198900000000E+34     -0.480584912956E+13     -0.295311068438E+14     -0.196015039768E+07      0.318992002589E+06      0.131818121025E+00      0.000000000000E+00
     1      0.168717600000E+09      0.198900000000E+34     -0.603758324000E+13     -0.293040960637E+14     -0.194508237872E+07      0.400749320986E+06      0.131818121025E+00      0.000000000000E+00
     1      0.169348320000E+09      0.198900000000E+34     -0.725873719023E+13     -0.290257332742E+14     -0.192660582984E+07      0.481804372924E+06      0.131818121025E+00      0.000000000000E+00
     1      0.169979040000E+09      0.198900000000E+34     -0.846717105043E+13     -0.286965062737E+14     -0.190475312902E+07      0.562015118884E+06      0.131818121025E+00      0.000000000000E+00
     1      0.170609760000E+09      0.198900000000E+34     -0.966076718126E+13     -0.283169919940E+14     -0.187956257060E+07      0.641240998892E+06      0.131818121025E+00      0.000000000000E+00
     1      0.171240480000E+09      0.198900000000E+34     -0.108374339448E+14     -0.278878554897E+14     -0.185107829807E+07      0.719343178838E+06      0.131818121025E+00      0.000000000000E+00
     1      0.171871200000E+09      0.198900000000E+34     -0.119951093697E+14     -0.274098487725E+14     -0.181935022681E+07      0.796184793766E+06      0.131818121025E+00      0.000000000000E+00
     1      0.172501920000E+09      0.198900000000E+34     -0.131317647651E+14     -0.268838094934E+14     -0.178443395656E+07      0.871631187713E+06      0.131818121025E+00      0.000000000000E+00
     1      0.173132640000E+09      0.198900000000E+34     -0.142454082748E+14     -0.263106594749E+14     -0.174639067402E+07      0.945550149677E+06      0.131818121025E+00      0.000000000000E+00
     1      0.173763360000E+09      0.198900000000E+34     -0.153340883686E+14     -0.256914030954E+14     -0.170528704559E+07      0.101781214530E+07      0.131818121025E+00      0.000000000000E+00
     1      0.174394080000E+09      0.198900000000E+34     -0.163958972617E+14     -0.250271255297E+14     -0.166119510060E+07      0.108829054388E+07      0.131818121025E+00      0.000000000000E+00
     1      0.175024800000E+09      0.198900000000E+34     -0.174289742579E+14     -0.243189908465E+14     -0.161419210504E+07      0.115686184023E+07      0.131818121025E+00      0.000000000000E+00
     1      0.175655520000E+09      0.198900000000E+34     -0.184315090103E+14     -0.235682399694E+14     -0.156436042616E+07      0.122340587117E+07      0.131818121025E+00      0.000000000000E+00
     1      0.176286240000E+09      0.198900000000E+34     -0.194017446937E+14     -0.227761885016E+14     -0.151178738818E+07      0.128780602605E+07      0.131818121025E+00      0.000000000000E+00
     1      0.176916960000E+09      0.198900000000E+34     -0.203379810833E+14     -0.219442244210E+14     -0.145656511922E+07      0.134994945110E+07      0.131818121025E+00      0.000000000000E+00
     1      0.177547680000E+09      0.198900000000E+34     -0.212385775340E+14     -0.210738056476E+14     -0.139879038984E+07      0.140972724724E+07      0.131818121025E+00      0.000000000000E+00
     1      0.178178400000E+09      0.198900000000E+34     -0.221019558558E+14     -0.201664574886E+14     -0.133856444354E+07      0.146703466085E+07      0.131818121025E+00      0.000000000000E+00
     1      0.178809120000E+09      0.198900000000E+34     -0.229266030788E+14     -0.192237699660E+14     -0.127599281925E+07      0.152177126738E+07      0.131818121025E+00      0.000000000000E+00
     1      0.179439840000E+09      0.198900000000E+34     -0.237110741050E+14     -0.182473950295E+14     -0.121118516644E+07      0.157384114731E+07      0.131818121025E+00      0.000000000000E+00
     1      0.180070560000E+09      0.198900000000E+34     -0.244539942404E+14     -0.172390436623E+14     -0.114425505296E+07      0.162315305426E+07      0.131818121025E+00      0.000000000000E+00
     1      0.180701280000E+09      0.198900000000E+34     -0.251540616043E+14     -0.162004828827E+14     -0.107531976604E+07      0.166962057486E+07      0.131818121025E+00      0.000000000000E+00
     1      0.181332000000E+09      0.198900000000E+34     -0.258100494103E+14     -0.151335326471E+14     -0.100450010671E+07      0.171316228021E+07      0.131818121025E+00      0.000000000000E+00
     1      0.181962720000E+09      0.198900000000E+34     -0.264208081162E+14     -0.140400626613E+14     -0.931920178157E+06      0.175370186855E+07      0.131818121025E+00      0.000000000000E+00
     1      0.182593440000E+09      0.198900000000E+34     -0.269852674388E+14     -0.129219891040E+14     -0.857707168249E+06      0.179116829899E+07      0.131818121025E+00      0.000000000000E+00
     1      0.183224160000E+09      0.198900000000E+34     -0.275024382289E+14     -0.117812712685E+14     -0.781991126620E+06      0.182549591597E+07      0.131818121025E+00      0.000000000000E+00
     1      0.183854880000E+09      0.198900000000E+34     -0.279714142051E+14     -0.106199081298E+14     -0.704904736798E+06      0.185662456437E+07      0.131818121025E+00      0.000000000000E+00
     1      0.184485600000E+09      0.198900000000E+34     -0.283913735417E+14     -0.943993484133E+13     -0.626583083686E+06      0.188449969484E+07      0.131818121025E+00      0.000000000000E+00
     1      0.185116320000E+09      0.198900000000E+34     -0.287615803089E+14     -0.824341916851E+13     -0.547163416841E+06      0.190907245949E+07      0.131818121025E+00      0.000000000000E+00
     1      0.185747040000E+09      0.198900000000E+34     -0.290813857627E+14     -0.703245786547E+13     -0.466784909961E+06      0.193029979741E+07      0.131818121025E+00      0.000000000000E+00
     1      0.186377760000E+09      0.198900000000E+34     -0.293502294813E+14     -0.580917300060E+13     -0.385588417000E+06      0.194814451017E+07      0.131818121025E+00      0.000000000000E+00
     1      0.187008480000E+09      0.198900000000E+34     -0.295676403474E+14     -0.457570823789E+13     -0.303716225336E+06      0.196257532699E+07      0.131818121025E+00      0.000000000000E+00
     1      0.187639200000E+09      0.198900000000E+34     -0.297332373739E+14     -0.333422508041E+13     -0.221311806431E+06      0.197356695956E+07      0.131818121025E+00      0.000000000000E+00
     1      0.188269920000E+09      0.198900000000E+34     -0.298467303713E+14     -0.208689908253E+13     -0.138519564412E+06      0.198110014631E+07      0.131818121025E+00      0.000000000000E+00
     1      0.188900640000E+09      0.198900000000E+34     -0.299079204564E+14     -0.835916037524E+12     -0.554845830215E+05      0.198516168621E+07      0.131818121025E+00      0.000000000000E+00
     1      0.189531360000E+09      0.198900000000E+34     -0.299167004007E+14      0.416531852800E+12      0.276476286257E+05      0.198574446190E+07      0.131818121025E+00      0.000000000000E+00
     1      0.190162080000E+09      0.198900000000E+34     -0.298730548183E+14      0.166824981965E+13      0.110731391030E+06      0.198284745213E+07      0.131818121025E+00      0.000000000000E+00
     1      0.190792800000E+09      0.198900000000E+34     -0.297770601931E+14      0.291704437335E+13      0.193621109595E+06      0.197647573356E+07      0.131818121025E+00      0.000000000000E+00
     1      0.191423520000E+09      0.198900000000E+34     -0.296288847444E+14      0.416072714716E+13      0.276171529760E+06      0.196664047190E+07      0.131818121025E+00      0.000000000000E+00
     1      0.192054240000E+09      0.198900000000E+34     -0.294287881324E+14      0.539711873212E+13      0.358237991549E+06      0.195335890228E+07      0.131818121025E+00      0.000000000000E+00
     1      0.192684960000E+09      0.198900000000E+34     -0.291771210031E+14      0.662405249627E+13      0.439676683064E+06      0.193665429911E+07      0.131818121025E+00      0.000000000000E+00
     1      0.193315680000E+09      0.198900000000E+34     -0.288743243738E+14      0.783937838134E+13      0.520344892502E+06      0.191655593526E+07      0.131818121025E+00      0.000000000000E+00
     1      0.193946400000E+09      0.198900000000E+34     -0.285209288601E+14      0.904096667051E+13      0.600101258240E+06      0.189309903076E+07      0.131818121025E+00      0.000000000000E+00
     1      0.194577120000E+09      0.198900000000E+34     -0.281175537466E+14      0.102267117205E+14      0.678806016554E+06      0.186632469110E+07      0.131818121025E+00      0.000000000000E+00
     1      0.195207840000E+09      0.198900000000E+34     -0.276649059009E+14      0.113945356515E+14      0.756321246540E+06      0.183627983518E+07      0.131818121025E+00      0.000000000000E+00
     1      0.195838560000E+09      0.198900000000E+34     -0.271637785358E+14      0.125423919884E+14      0.832511111802E+06      0.180301711311E+07      0.131818121025E+00      0.000000000000E+00
     1      0.196469280000E+09      0.198900000000E+34     -0.266150498182E+14      0.136682692467E+14      0.907242098493E+06      0.176659481393E+07      0.131818121025E+00      0.000000000000E+00
     1      0.197100000000E+09      0.198900000000E+34     -0.260196813314E+14      0.147701944581E+14      0.980383249279E+06      0.172707676346E+07      0.131818121025E+00      0.000000000000E+00
     1      0.197730720000E+09      0.198900000000E+34     -0.253787163891E+14      0.158462366271E+14      0.105180639283E+07      0.168453221247E+07      0.131818121025E+00      0.000000000000E+00
     1      0.198361440000E+09      0.198900000000E+34     -0.246932782076E+14      0.168945101153E+14      0.112138636841E+07      0.163903571532E+07      0.131818121025E+00      0.000000000000E+00
     1      0.198992160000E+09      0.198900000000E+34     -0.239645679373E+14      0.179131779459E+14      0.118900124525E+07      0.159066699933E+07      0.131818121025E+00      0.000000000000E+00
     1      0.199622880000E+09      0.198900000000E+34     -0.231938625578E+14      0.189004550222E+14      0.125453253615E+07      0.153951082500E+07      0.131818121025E+00      0.000000000000E+00
     1      0.200253600000E+09      0.198900000000E+34     -0.223825126406E+14      0.198546112565E+14      0.131786540518E+07      0.148565683757E+07      0.131818121025E+00      0.000000000000E+00
     1      0.200884320000E+09      0.198900000000E+34     -0.215319399815E+14      0.207739746011E+14      0.137888886887E+07      0.142919940987E+07      0.131818121025E+00      0.000000000000E+00
     1      0.201515040000E+09      0.198900000000E+34     -0.206436351099E+14      0.216569339792E+14      0.143749599072E+07      0.137023747694E+07      0.131818121025E+00      0.000000000000E+00
     1      0.202145760000E+09      0.198900000000E+34     -0.197191546765E+14      0.225019421074E+14      0.149358406859E+07      0.130887436270E+07      0.131818121025E+00      0.000000000000E+00
     1      0.202776480000E+09      0.198900000000E+34     -0.187601187254E+14      0.233075182075E+14      0.154705481467E+07      0.124521759884E+07      0.131818121025E+00      0.000000000000E+00
     1      0.203407200000E+09      0.198900000000E+34     -0.177682078551E+14      0.240722506015E+14      0.159781452771E+07      0.117937873641E+07      0.131818121025E+00      0.000000000000E+00
     1      0.204037920000E+09      0.198900000000E+34     -0.167451602737E+14      0.247947991849E+14      0.164577425723E+07      0.111147315032E+07      0.131818121025E+00      0.000000000000E+00
     1      0.204668640000E+09      0.198900000000E+34     -0.156927687527E+14      0.254738977758E+14      0.169084995941E+07      0.104161983721E+07      0.131818121025E+00      0.000000000000E+00
     1      0.205299360000E+09      0.198900000000E+34     -0.146128774854E+14      0.261083563331E+14      0.173296264432E+07      0.969941206836E+06      0.131818121025E+00      0.000000000000E+00
     1      0.205930080000E+09      0.198900000000E+34     -0.135073788553E+14      0.266970630421E+14      0.177203851442E+07      0.896562867645E+06      0.131818121025E+00      0.000000000000E+00
     1      0.206560800000E+09      0.198900000000E+34     -0.123782101198E+14      0.272389862630E+14      0.180800909378E+07      0.821613406610E+06      0.131818121025E+00      0.000000000000E+00
     1      0.207191520000E+09      0.198900000000E+34     -0.112273500153E+14      0.277331763386E+14      0.184081134817E+07      0.745224163915E+06      0.131818121025E+00      0.000000000000E+00
     1      0.207822240000E+09      0.198900000000E+34     -0.100568152898E+14      0.281787672585E+14      0.187038779546E+07      0.667529002794E+06      0.131818121025E+00      0.000000000000E+00
     1      0.208452960000E+09      0.198900000000E+34     -0.886865716883E+13      0.285749781764E+14      0.189668660637E+07      0.588664074950E+06      0.131818121025E+00      0.000000000000E+00
     1      0.209083680000E+09      0.198900000000E+34     -0.766495776095E+13      0.289211147790E+14      0.191966169531E+07      0.508767581966E+06      0.131818121025E+00      0.000000000000E+00
     1      0.209714400000E+09      0.198900000000E+34     -0.644782640890E+13      0.292165705022E+14      0.193927280110E+07      0.427979533125E+06      0.131818121025E+00      0.000000000000E+00
     1      0.210345120000E+09      0.198900000000E+34     -0.521939599334E+13      0.294608275944E+14      0.195548555757E+07      0.346441500054E+06      0.131818121025E+00      0.000000000000E+00
     1      0.210975840000E+09      0.198900000000E+34     -0.398181919526E+13      0.296534580235E+14      0.196827155376E+07      0.264296368643E+06      0.131818121025E+00      0.000000000000E+00
     1      0.211606560000E+09      0.198900000000E+34     -0.273726472360E+13      0.297941242270E+14      0.197760838370E+07      0.181688088650E+06      0.131818121025E+00      0.000000000000E+00
     1      0.212237280000E+09      0.198900000000E+34     -0.148791351487E+13      0.298825797040E+14      0.198347968567E+07      0.987614214471E+05      0.131818121025E+00      0.000000000000E+00
     1      0.212868000000E+09      0.198900000000E+34     -0.235954911310E+12      0.299186694463E+14      0.198587517091E+07      0.156616863435E+05      0.131818121025E+00      0.000000000000E+00
     1      0.213498720000E+09      0.198900000000E+34      0.101641717570E+13      0.299023302110E+14      0.198479064160E+07     -0.674654940705E+05      0.131818121025E+00      0.000000000000E+00
     1      0.214129440000E+09      0.198900000000E+34      0.226700811020E+13      0.298335906307E+14      0.198022799824E+07     -0.150474449110E+06      0.131818121025E+00      0.000000000000E+00
     1      0.214760160000E+09      0.198900000000E+34      0.351362637746E+13      0.297125711634E+14      0.197219523635E+07     -0.233219715264E+06      0.131818121025E+00      0.000000000000E+00
     1      0.215390880000E+09      0.198900000000E+34      0.475408742442E+13      0.295394838816E+14      0.196070643239E+07     -0.315556291108E+06      0.131818121025E+00      0.000000000000E+00
     1      0.216021600000E+09      0.198900000000E+34      0.598621748780E+13      0.293146321005E+14      0.194578171915E+07     -0.397339891399E+06      0.131818121025E+00      0.000000000000E+00
     1      0.216652320000E+09      0.198900000000E+34      0.720785740341E+13      0.290384098466E+14      0.192744725044E+07     -0.478427199916E+06      0.131818121025E+00      0.000000000000E+00
     1      0.217283040000E+09      0.198900000000E+34      0.841686638982E+13      0.287113011673E+14      0.190573515529E+07     -0.558676120612E+06      0.131818121025E+00      0.000000000000E+00
     1      0.217913760000E+09      0.198900000000E+34      0.961112579982E+13      0.283338792822E+14      0.188068348160E+07     -0.637946026613E+06      0.131818121025E+00      0.000000000000E+00
     1      0.218544480000E+09      0.198900000000E+34      0.107885428331E+14      0.279068055792E+14      0.185233612950E+07     -0.716098006657E+06      0.131818121025E+00      0.000000000000E+00
     1      0.219175200000E+09      0.198900000000E+34      0.119470542037E+14      0.274308284550E+14      0.182074277442E+07     -0.792995108514E+06      0.131818121025E+00      0.000000000000E+00
     1      0.219805920000E+09      0.198900000000E+34      0.130846297556E+14      0.269067820042E+14      0.178595878003E+07     -0.868502578983E+06      0.131818121025E+00      0.000000000000E+00
     1      0.220436640000E+09      0.198900000000E+34      0.141992760203E+14      0.263355845568E+14      0.174804510121E+07     -0.942488100030E+06      0.131818121025E+00      0.000000000000E+00
     1      0.221067360000E+09      0.198900000000E+34      0.152890397102E+14      0.257182370699E+14      0.170706817727E+07     -0.101482202066E+07      0.131818121025E+00      0.000000000000E+00
     1      0.221698080000E+09      0.198900000000E+34      0.163520111417E+14      0.250558213727E+14      0.166309981548E+07     -0.108537758411E+07      0.131818121025E+00      0.000000000000E+00
     1      0.222328800000E+09      0.198900000000E+34      0.173863275812E+14      0.243494982716E+14      0.161621706526E+07     -0.115403114998E+07      0.131818121025E+00      0.000000000000E+00
     1      0.222959520000E+09      0.198900000000E+34      0.183901765100E+14      0.236005055154E+14      0.156650208317E+07     -0.122066241092E+07      0.131818121025E+00      0.000000000000E+00
     1      0.223590240000E+09      0.198900000000E+34      0.193617987997E+14      0.228101556264E+14      0.151404198891E+07     -0.128515460340E+07      0.131818121025E+00      0.000000000000E+00
     1      0.224220960000E+09      0.198900000000E+34      0.202994917958E+14      0.219798336007E+14      0.145892871267E+07     -0.134739471238E+07      0.131818121025E+00      0.000000000000E+00
     1      0.224851680000E+09      0.198900000000E+34      0.212016123005E+14      0.211109944807E+14      0.140125883403E+07     -0.140727366933E+07      0.131818121025E+00      0.000000000000E+00
     1      0.225482400000E+09      0.198900000000E+34      0.220665794530E+14      0.202051608056E+14      0.134113341274E+07     -0.146468654336E+07      0.131818121025E+00      0.000000000000E+00
     1      0.226113120000E+09      0.198900000000E+34      0.228928774993E+14      0.192639199433E+14      0.127865781158E+07     -0.151953272510E+07      0.131818121025E+00      0.000000000000E+00
     1      0.226743840000E+09      0.198900000000E+34      0.236790584482E+14      0.182889213085E+14      0.121394151175E+07     -0.157171610301E+07      0.131818121025E+00      0.000000000000E+00
     1      0.227374560000E+09      0.198900000000E+34      0.244237446096E+14      0.172818734726E+14      0.114709792102E+07     -0.162114523182E+07      0.131818121025E+00      0.000000000000E+00
     1      0.228005280000E+09      0.198900000000E+34      0.251256310076E+14      0.162445411695E+14      0.107824417497E+07     -0.166773349273E+07      0.131818121025E+00      0.000000000000E+00
     1      0.228636000000E+09      0.198900000000E+34      0.257834876683E+14      0.151787422029E+14      0.100750093178E+07     -0.171139924526E+07      0.131818121025E+00      0.000000000000E+00
     1      0.229266720000E+09      0.198900000000E+34      0.263961617746E+14      0.140863442613E+14      0.934992160718E+06     -0.175206597026E+07      0.131818121025E+00      0.000000000000E+00
     1      0.229897440000E+09      0.198900000000E+34      0.269625796866E+14      0.129692616447E+14      0.860844924950E+06     -0.178966240403E+07      0.131818121025E+00      0.000000000000E+00
     1      0.230528160000E+09      0.198900000000E+34      0.274817488230E+14      0.118294519098E+14      0.785189158857E+06     -0.182412266323E+07      0.131818121025E+00      0.000000000000E+00
     1      0.231158880000E+09      0.198900000000E+34      0.279527594004E+14      0.106689124405E+14      0.708157440345E+06     -0.185538636024E+07      0.131818121025E+00      0.000000000000E+00
     1      0.231789600000E+09      0.198900000000E+34      0.283747860277E+14      0.948967694667E+13      0.629884758515E+06     -0.188339870911E+07      0.131818121025E+00      0.000000000000E+00
     1      0.232420320000E+09      0.198900000000E+34      0.287470891525E+14      0.829381190098E+13      0.550508277112E+06     -0.190811062144E+07      0.131818121025E+00      0.000000000000E+00
     1      0.233051040000E+09      0.198900000000E+34      0.290690163569E+14      0.708341291743E+13      0.470167094162E+06     -0.192947879249E+07      0.131818121025E+00      0.000000000000E+00
     1      0.233681760000E+09      0.198900000000E+34      0.293400035011E+14      0.586060107904E+13      0.389001998215E+06     -0.194746577704E+07      0.131818121025E+00      0.000000000000E+00
     1      0.234312480000E+09      0.198900000000E+34      0.295595757118E+14      0.462751922091E+13      0.307155221637E+06     -0.196204005500E+07      0.131818121025E+00      0.000000000000E+00
     1      0.234943200000E+09      0.198900000000E+34      0.297273482141E+14      0.338632817515E+13      0.224770191356E+06     -0.197317608663E+07      0.131818121025E+00      0.000000000000E+00
     1      0.235573920000E+09      0.198900000000E+34      0.298430270065E+14      0.213920298429E+13      0.141991277530E+06     -0.198085435735E+07      0.131818121025E+00      0.000000000000E+00
     1      0.236204640000E+09      0.198900000000E+34      0.299064093753E+14      0.888329089746E+12      0.589635405484E+05     -0.198506141187E+07      0.131818121025E+00      0.000000000000E+00
     1      0.236835360000E+09      0.198900000000E+34      0.299173842502E+14     -0.364101497903E+12     -0.241675231622E+05     -0.198578987783E+07      0.131818121025E+00      0.000000000000E+00
     1      0.237466080000E+09      0.198900000000E+34      0.298759323992E+14     -0.161589404015E+13     -0.107256236109E+06     -0.198303847867E+07      0.131818121025E+00      0.000000000000E+00
     1      0.238096800000E+09      0.198900000000E+34      0.297821264617E+14     -0.286485491658E+13     -0.190156995014E+06     -0.197681203590E+07      0.131818121025E+00      0.000000000000E+00
     1      0.238727520000E+09      0.198900000000E+34      0.296361308216E+14     -0.410879546895E+13     -0.272724525966E+06     -0.196712146064E+07      0.131818121025E+00      0.000000000000E+00
     1      0.239358240000E+09      0.198900000000E+34      0.294382013195E+14     -0.534553583656E+13     -0.354814138997E+06     -0.195398373449E+07      0.131818121025E+00      0.000000000000E+00
     1      0.239988960000E+09      0.198900000000E+34      0.291886848034E+14     -0.657290877618E+13     -0.436281981636E+06     -0.193742187977E+07      0.131818121025E+00      0.000000000000E+00
     1      0.240619680000E+09      0.198900000000E+34      0.288880185222E+14     -0.778876345990E+13     -0.516985290989E+06     -0.191746491922E+07      0.131818121025E+00      0.000000000000E+00
     1      0.241250400000E+09      0.198900000000E+34      0.285367293584E+14     -0.899096924422E+13     -0.596782643921E+06     -0.189414782507E+07      0.131818121025E+00      0.000000000000E+00
     1      0.241881120000E+09      0.198900000000E+34      0.281354329052E+14     -0.101774194038E+14     -0.675534204878E+06     -0.186751145781E+07      0.131818121025E+00      0.000000000000E+00
     1      0.242511840000E+09      0.198900000000E+34      0.276848323878E+14     -0.113460348230E+14     -0.753101970935E+06     -0.183760249458E+07      0.131818121025E+00      0.000000000000E+00
     1      0.243142560000E+09      0.198900000000E+34      0.271857174312E+14     -0.124947676397E+14     -0.829350013630E+06     -0.180447334734E+07      0.131818121025E+00      0.000000000000E+00
     1      0.243773280000E+09      0.198900000000E+34      0.266389626761E+14     -0.136216048337E+14     -0.904144717160E+06     -0.176818207105E+07      0.131818121025E+00      0.000000000000E+00
     1      0.244404000000E+09      0.198900000000E+34      0.260455262464E+14     -0.147245717543E+14     -0.977355012534E+06     -0.172879226196E+07      0.131818121025E+00      0.000000000000E+00
     1      0.245034720000E+09      0.198900000000E+34      0.254064480703E+14     -0.158017355804E+14     -0.104885260725E+07     -0.168637294610E+07      0.131818121025E+00      0.000000000000E+00
     1      0.245665440000E+09      0.198900000000E+34      0.247228480576E+14     -0.168512087083E+14     -0.111851221010E+07     -0.164099845838E+07      0.131818121025E+00      0.000000000000E+00
     1      0.246296160000E+09      0.198900000000E+34      0.239959241377E+14     -0.178711520587E+14     -0.118621175078E+07     -0.159274831231E+07      0.131818121025E+00      0.000000000000E+00
     1      0.246926880000E+09      0.198900000000E+34      0.232269501600E+14     -0.188597782998E+14     -0.125183259372E+07     -0.154170706062E+07      0.131818121025E+00      0.000000000000E+00
     1      0.247557600000E+09      0.198900000000E+34      0.224172736616E+14     -0.198153549795E+14     -0.131525974606E+07     -0.148796414717E+07      0.131818121025E+00      0.000000000000E+00
     1      0.248188320000E+09      0.198900000000E+34      0.215683135062E+14     -0.207362075612E+14     -0.137638205912E+07     -0.143161375014E+07      0.131818121025E+00      0.000000000000E+00
     1      0.248819040000E+09      0.198900000000E+34      0.206815573975E+14     -0.216207223581E+14     -0.143509242316E+07     -0.137275461703E+07      0.131818121025E+00      0.000000000000E+00
     1      0.249449760000E+09      0.198900000000E+34      0.197585592720E+14     -0.224673493612E+14     -0.149128795512E+07     -0.131148989161E+07      0.131818121025E+00      0.000000000000E+00
     1      0.250080480000E+09      0.198900000000E+34      0.188009365763E+14     -0.232746049555E+14     -0.154487017890E+07     -0.124792693316E+07      0.131818121025E+00      0.000000000000E+00
     1      0.250711200000E+09      0.198900000000E+34      0.178103674326E+14     -0.240410745197E+14     -0.159574519789E+07     -0.118217712836E+07      0.131818121025E+00      0.000000000000E+00
     1      0.251341920000E+09      0.198900000000E+34      0.167885876976E+14     -0.247654149054E+14     -0.164382385957E+07     -0.111435569607E+07      0.131818121025E+00      0.000000000000E+00
     1      0.251972640000E+09      0.198900000000E+34      0.157373879212E+14     -0.254463567906E+14     -0.168902191167E+07     -0.104458148544E+07      0.131818121025E+00      0.000000000000E+00
     1      0.252603360000E+09      0.198900000000E+34      0.146586102083E+14     -0.260827069040E+14     -0.173126014991E+07     -0.972976767638E+06      0.131818121025E+00      0.000000000000E+00
     1      0.253234080000E+09      0.198900000000E+34      0.135541449911E+14     -0.266733501162E+14     -0.177046455668E+07     -0.899667021577E+06      0.131818121025E+00      0.000000000000E+00
     1      0.253864800000E+09      0.198900000000E+34      0.124259277160E+14     -0.272172513941E+14     -0.180656643085E+07     -0.824780714039E+06      0.131818121025E+00      0.000000000000E+00
     1      0.254495520000E+09      0.198900000000E+34      0.112759354522E+14     -0.277134576141E+14     -0.183950250809E+07     -0.748449074543E+06      0.131818121025E+00      0.000000000000E+00
     1      0.255126240000E+09      0.198900000000E+34      0.101061834270E+14     -0.281610992326E+14     -0.186921507176E+07     -0.670805865383E+06      0.131818121025E+00      0.000000000000E+00
     1      0.255756960000E+09      0.198900000000E+34      0.891872149433E+13     -0.285593918100E+14     -0.189565205408E+07     -0.591987147227E+06      0.131818121025E+00      0.000000000000E+00
     1      0.256387680000E+09      0.198900000000E+34      0.771563054269E+13     -0.289076373851E+14     -0.191876712732E+07     -0.512131040685E+06      0.131818121025E+00      0.000000000000E+00
     1      0.257018400000E+09      0.198900000000E+34      0.649901884865E+13     -0.292052256980E+14     -0.193851978500E+07     -0.431377484268E+06      0.131818121025E+00      0.000000000000E+00
     1      0.257649120000E+09      0.198900000000E+34      0.527101838227E+13     -0.294516352601E+14     -0.195487541290E+07     -0.349867989164E+06      0.131818121025E+00      0.000000000000E+00
     1      0.258279840000E+09      0.198900000000E+34      0.403378107110E+13     -0.296464342672E+14     -0.196780534971E+07     -0.267745391255E+06      0.131818121025E+00      0.000000000000E+00
     1      0.258910560000E+09      0.198900000000E+34      0.278947502921E+13     -0.297892813570E+14     -0.197728693720E+07     -0.185153600813E+06      0.131818121025E+00      0.000000000000E+00
     1      0.259541280000E+09      0.198900000000E+34      0.154028075777E+13     -0.298799262065E+14     -0.198330356001E+07     -0.102237350317E+06      0.131818121025E+00      0.000000000000E+00
     1      0.260172000000E+09      0.198900000000E+34      0.288387323992E+12     -0.299182099713E+14     -0.198584467471E+07     -0.191419408223E+05      0.131818121025E+00      0.000000000000E+00
     1      0.260802720000E+09      0.198900000000E+34     -0.964011474921E+12     -0.299040655636E+14     -0.198490582830E+07      0.639870126604E+05      0.131818121025E+00      0.000000000000E+00
     1      0.261433440000E+09      0.198900000000E+34     -0.221472095619E+13     -0.298375177697E+14     -0.198048866599E+07      0.147003836338E+06      0.131818121025E+00      0.000000000000E+00
     1      0.262064160000E+09      0.198900000000E+34     -0.346154939736E+13     -0.297186832070E+14     -0.197260092836E+07      0.229763052913E+06      0.131818121025E+00      0.000000000000E+00
     1      0.262694880000E+09      0.198900000000E+34     -0.470231187706E+13     -0.295477701191E+14     -0.196125643774E+07      0.312119636513E+06      0.131818121025E+00      0.000000000000E+00
     1      0.263325600000E+09      0.198900000000E+34     -0.593483410380E+13     -0.293250780114E+14     -0.194647507404E+07      0.393929266836E+06      0.131818121025E+00      0.000000000000E+00
     1      0.263956320000E+09      0.198900000000E+34     -0.715695622619E+13     -0.290509971258E+14     -0.192828273987E+07      0.475048582047E+06      0.131818121025E+00      0.000000000000E+00
     1      0.264587040000E+09      0.198900000000E+34     -0.836653661777E+13     -0.287260077571E+14     -0.190671131517E+07      0.555335430014E+06      0.131818121025E+00      0.000000000000E+00
     1      0.265217760000E+09      0.198900000000E+34     -0.956145563006E+13     -0.283506794113E+14     -0.188179860136E+07      0.634649117402E+06      0.131818121025E+00      0.000000000000E+00
     1      0.265848480000E+09      0.198900000000E+34     -0.107396193069E+14     -0.279256698074E+14     -0.185358825506E+07      0.712850656230E+06      0.131818121025E+00      0.000000000000E+00
     1      0.266479200000E+09      0.198900000000E+34     -0.118989630539E+14     -0.274517237254E+14     -0.182212971161E+07      0.789803007424E+06      0.131818121025E+00      0.000000000000E+00
     1      0.267109920000E+09      0.198900000000E+34     -0.130374552564E+14     -0.269296717004E+14     -0.178747809844E+07      0.865371320970E+06      0.131818121025E+00      0.000000000000E+00
     1      0.267740640000E+09      0.198900000000E+34     -0.141531008397E+14     -0.263604285676E+14     -0.174969413847E+07      0.939423172216E+06      0.131818121025E+00      0.000000000000E+00
     1      0.268371360000E+09      0.198900000000E+34     -0.152439447650E+14     -0.257449918593E+14     -0.170884404367E+07      0.101182879393E+07      0.131818121025E+00      0.000000000000E+00
     1      0.269002080000E+09      0.198900000000E+34     -0.163080754557E+14     -0.250844400566E+14     -0.166499939908E+07      0.108246130372E+07      0.131818121025E+00      0.000000000000E+00
     1      0.269632800000E+09      0.198900000000E+34     -0.173436281469E+14     -0.243799306994E+14     -0.161823703732E+07      0.115119692635E+07      0.131818121025E+00      0.000000000000E+00
     1      0.270263520000E+09      0.198900000000E+34     -0.183487881533E+14     -0.236326983581E+14     -0.156863890397E+07      0.121791521065E+07      0.131818121025E+00      0.000000000000E+00
     1      0.270894240000E+09      0.198900000000E+34     -0.193217940493E+14     -0.228440524703E+14     -0.151629191398E+07      0.128249924064E+07      0.131818121025E+00      0.000000000000E+00
     1      0.271524960000E+09      0.198900000000E+34     -0.202609407556E+14     -0.220153750459E+14     -0.146128779933E+07      0.134483584032E+07      0.131818121025E+00      0.000000000000E+00
     1      0.272155680000E+09      0.198900000000E+34     -0.211645825273E+14     -0.211481182453E+14     -0.140372294833E+07      0.140481577208E+07      0.131818121025E+00      0.000000000000E+00
     1      0.272786400000E+09      0.198900000000E+34     -0.220311358374E+14     -0.202438018351E+14     -0.134369823666E+07      0.146233392810E+07      0.131818121025E+00      0.000000000000E+00
     1      0.273417120000E+09      0.198900000000E+34     -0.228590821525E+14     -0.193040105241E+14     -0.128131885063E+07      0.151728951451E+07      0.131818121025E+00      0.000000000000E+00
     1      0.274047840000E+09      0.198900000000E+34     -0.236469705932E+14     -0.183303911870E+14     -0.121669410282E+07      0.156958622807E+07      0.131818121025E+00      0.000000000000E+00
     1      0.274678560000E+09      0.198900000000E+34     -0.243934204771E+14     -0.173246499781E+14     -0.114993724058E+07      0.161913242489E+07      0.131818121025E+00      0.000000000000E+00
     1      0.275309280000E+09      0.198900000000E+34     -0.250971237378E+14     -0.162885493415E+14     -0.108116524751E+07      0.166584128104E+07      0.131818121025E+00      0.000000000000E+00
     1      0.275940000000E+09      0.198900000000E+34     -0.257568472174E+14     -0.152239049228E+14     -0.101049863850E+07      0.170963094471E+07      0.131818121025E+00      0.000000000000E+00
     1      0.276570720000E+09      0.198900000000E+34     -0.263714348275E+14     -0.141325823869E+14     -0.938061248549E+06      0.175042467961E+07      0.131818121025E+00      0.000000000000E+00
     1      0.277201440000E+09      0.198900000000E+34     -0.269398095751E+14     -0.130164941494E+14     -0.863980015724E+06      0.178815099949E+07      0.131818121025E+00      0.000000000000E+00
     1      0.277832160000E+09      0.198900000000E+34     -0.274609754497E+14     -0.118775960247E+14     -0.788384758742E+06      0.182274379339E+07      0.131818121025E+00      0.000000000000E+00
     1      0.278462880000E+09      0.198900000000E+34     -0.279340191689E+14     -0.107178837988E+14     -0.711407949470E+06      0.185414244145E+07      0.131818121025E+00      0.000000000000E+00
     1      0.279093600000E+09      0.198900000000E+34     -0.283581117790E+14     -0.953938973213E+13     -0.633184480784E+06      0.188229192123E+07      0.131818121025E+00      0.000000000000E+00
     1      0.279724320000E+09      0.198900000000E+34     -0.287325101069E+14     -0.834417899800E+13     -0.553851430184E+06      0.190714290403E+07      0.131818121025E+00      0.000000000000E+00
     1      0.280355040000E+09      0.198900000000E+34     -0.290565580634E+14     -0.713434606377E+13     -0.473547819585E+06      0.192865184142E+07      0.131818121025E+00      0.000000000000E+00
     1      0.280985760000E+09      0.198900000000E+34     -0.293296877922E+14     -0.591201102052E+13     -0.392414371693E+06      0.194678104149E+07      0.131818121025E+00      0.000000000000E+00
     1      0.281616480000E+09      0.198900000000E+34     -0.295514206654E+14     -0.467931586777E+13     -0.310593263408E+06      0.196149873494E+07      0.131818121025E+00      0.000000000000E+00
     1      0.282247200000E+09      0.198900000000E+34     -0.297213681219E+14     -0.343842075995E+13     -0.228227876674E+06      0.197277913072E+07      0.131818121025E+00      0.000000000000E+00
     1      0.282877920000E+09      0.198900000000E+34     -0.298392323488E+14     -0.219150022094E+13     -0.145462547218E+06      0.198060246126E+07      0.131818121025E+00      0.000000000000E+00
     1      0.283508640000E+09      0.198900000000E+34     -0.299048068025E+14     -0.940739333514E+12     -0.624423116243E+05      0.198495501709E+07      0.131818121025E+00      0.000000000000E+00
     1      0.284139360000E+09      0.198900000000E+34     -0.299179765717E+14      0.311670089829E+12      0.206873468343E+05      0.198582917085E+07      0.131818121025E+00      0.000000000000E+00
     1      0.284770080000E+09      0.198900000000E+34     -0.298787185778E+14      0.156353334770E+13      0.103780753132E+06      0.198322339070E+07      0.131818121025E+00      0.000000000000E+00
     1      0.285400800000E+09      0.198900000000E+34     -0.297871016159E+14      0.281265669582E+13      0.186692295770E+06      0.197714224296E+07      0.131818121025E+00      0.000000000000E+00
     1      0.286031520000E+09      0.198900000000E+34     -0.296432862340E+14      0.405685119125E+13      0.269276681947E+06      0.196759638414E+07      0.131818121025E+00      0.000000000000E+00
     1      0.286662240000E+09      0.198900000000E+34     -0.294475244517E+14      0.529393652832E+13      0.351389192162E+06      0.195460254223E+07      0.131818121025E+00      0.000000000000E+00
     1      0.287292960000E+09      0.198900000000E+34     -0.292001593188E+14      0.652174485933E+13      0.432885933824E+06      0.193818348743E+07      0.131818121025E+00      0.000000000000E+00
     1      0.287923680000E+09      0.198900000000E+34     -0.289016243137E+14      0.773812459342E+13      0.513624093403E+06      0.191836799221E+07      0.131818121025E+00      0.000000000000E+00
     1      0.288554400000E+09      0.198900000000E+34     -0.285524425844E+14      0.894094416705E+13      0.593462186696E+06      0.189519078092E+07      0.131818121025E+00      0.000000000000E+00
     1      0.289185120000E+09      0.198900000000E+34     -0.281532260308E+14      0.101280957793E+14      0.672260306761E+06      0.186869246892E+07      0.131818121025E+00      0.000000000000E+00
     1      0.289815840000E+09      0.198900000000E+34     -0.277046742336E+14      0.112974990853E+14      0.749880369088E+06      0.183891949140E+07      0.131818121025E+00      0.000000000000E+00
     1      0.290446560000E+09      0.198900000000E+34     -0.272075732274E+14      0.124471048425E+14      0.826186353575E+06      0.180592402203E+07      0.131818121025E+00      0.000000000000E+00
     1      0.291077280000E+09      0.198900000000E+34     -0.266627941236E+14      0.135748985007E+14      0.901044542888E+06      0.176976388152E+07      0.131818121025E+00      0.000000000000E+00
     1      0.291708000000E+09      0.198900000000E+34     -0.260712915841E+14      0.146789037332E+14      0.974323756785E+06      0.173050243630E+07      0.131818121025E+00      0.000000000000E+00
     1      0.292338720000E+09      0.198900000000E+34     -0.254341021481E+14      0.157571858996E+14      0.104589558200E+07      0.168820848746E+07      0.131818121025E+00      0.000000000000E+00
     1      0.292969440000E+09      0.198900000000E+34     -0.247523424157E+14      0.168078554362E+14      0.111563459725E+07      0.164295615021E+07      0.131818121025E+00      0.000000000000E+00
     1      0.293600160000E+09      0.198900000000E+34     -0.240272070913E+14      0.178290711673E+14      0.118341859305E+07      0.159482472400E+07      0.131818121025E+00      0.000000000000E+00
     1      0.294230880000E+09      0.198900000000E+34     -0.232599668898E+14      0.188190435315E+14      0.124912878586E+07      0.154389855353E+07      0.131818121025E+00      0.000000000000E+00
     1      0.294861600000E+09      0.198900000000E+34     -0.224519663103E+14      0.197760377176E+14      0.131265002624E+07      0.149026688097E+07      0.131818121025E+00      0.000000000000E+00
     1      0.295492320000E+09      0.198900000000E+34     -0.216046212795E+14      0.206983767049E+14      0.137387100061E+07      0.143402368957E+07      0.131818121025E+00      0.000000000000E+00
     1      0.296123040000E+09      0.198900000000E+34     -0.207194166706E+14      0.215844442022E+14      0.143268442638E+07      0.137526753895E+07      0.131818121025E+00      0.000000000000E+00
     1      0.296753760000E+09      0.198900000000E+34     -0.197979037015E+14      0.224326874793E+14      0.148898723986E+07      0.131410139241E+07      0.131818121025E+00      0.000000000000E+00
     1      0.297384480000E+09      0.198900000000E+34     -0.188416972161E+14      0.232416200890E+14      0.154268077694E+07      0.125063243649E+07      0.131818121025E+00      0.000000000000E+00
     1      0.298015200000E+09      0.198900000000E+34     -0.178524728546E+14      0.240098244712E+14      0.159367094597E+07      0.118497189313E+07      0.131818121025E+00      0.000000000000E+00
     1      0.298645920000E+09      0.198900000000E+34     -0.168319641174E+14      0.247359544373E+14      0.164186839263E+07      0.111723482475E+07      0.131818121025E+00      0.000000000000E+00
     1      0.299276640000E+09      0.198900000000E+34     -0.157819593270E+14      0.254187375293E+14      0.168718865650E+07      0.104753993267E+07      0.131818121025E+00      0.000000000000E+00
     1      0.299907360000E+09      0.198900000000E+34     -0.147042984941E+14      0.260569772494E+14      0.172955231912E+07      0.976009349064E+06      0.131818121025E+00      0.000000000000E+00
     1      0.300538080000E+09      0.198900000000E+34     -0.136008700937E+14      0.266495551571E+14      0.176888514310E+07      0.902768422918E+06      0.131818121025E+00      0.000000000000E+00
     1      0.301168800000E+09      0.198900000000E+34     -0.124736077554E+14      0.271954328286E+14      0.180511820227E+07      0.827945500413E+06      0.131818121025E+00      0.000000000000E+00
     1      0.301799520000E+09      0.198900000000E+34     -0.113244868747E+14      0.276936536770E+14      0.183818800240E+07      0.751671699991E+06      0.131818121025E+00      0.000000000000E+00
     1      0.302430240000E+09      0.198900000000E+34     -0.101555211520E+14      0.281433446284E+14      0.186803659253E+07      0.674080682584E+06      0.131818121025E+00      0.000000000000E+00
     1      0.303060960000E+09      0.198900000000E+34     -0.896875906342E+13      0.285437176518E+14      0.189461166649E+07      0.595308417399E+06      0.131818121025E+00      0.000000000000E+00
     1      0.303691680000E+09      0.198900000000E+34     -0.776628027092E+13      0.288940711402E+14      0.191786665455E+07      0.515492943636E+06      0.131818121025E+00      0.000000000000E+00
     1      0.304322400000E+09      0.198900000000E+34     -0.655019197832E+13      0.291937911399E+14      0.193776080506E+07      0.434774128603E+06      0.131818121025E+00      0.000000000000E+00
     1      0.304953120000E+09      0.198900000000E+34     -0.532262523849E+13      0.294423524267E+14      0.195425925585E+07      0.353293422602E+06      0.131818121025E+00      0.000000000000E+00
     1      0.305583840000E+09      0.198900000000E+34     -0.408573121891E+13      0.296393194258E+14      0.196733309529E+07      0.271193611065E+06      0.131818121025E+00      0.000000000000E+00
     1      0.306214560000E+09      0.198900000000E+34     -0.284167743204E+13      0.297843469755E+14      0.197695941301E+07      0.188618564333E+06      0.131818121025E+00      0.000000000000E+00
     1      0.306845280000E+09      0.198900000000E+34     -0.159264393700E+13      0.298771809320E+14      0.198312134001E+07      0.105712985540E+06      0.131818121025E+00      0.000000000000E+00
     1      0.307476000000E+09      0.198900000000E+34     -0.340819519271E+12      0.299176586146E+14      0.198580807822E+07      0.226221570407E+05      0.131818121025E+00      0.000000000000E+00
     1      0.308106720000E+09      0.198900000000E+34      0.911602144901E+12      0.299057090907E+14      0.198501491945E+07     -0.605083141818E+05      0.131818121025E+00      0.000000000000E+00
     1      0.308737440000E+09      0.198900000000E+34      0.216242633266E+13      0.298413533006E+14      0.198074325362E+07     -0.143532751675E+06      0.131818121025E+00      0.000000000000E+00
     1      0.309368160000E+09      0.198900000000E+34      0.340946112055E+13      0.297247040202E+14      0.197300056630E+07     -0.226305664798E+06      0.131818121025E+00      0.000000000000E+00
     1      0.309998880000E+09      0.198900000000E+34      0.465052122558E+13      0.295559656638E+14      0.196180042567E+07     -0.308682003677E+06      0.131818121025E+00      0.000000000000E+00
     1      0.310629600000E+09      0.198900000000E+34      0.588343183469E+13      0.293354339257E+14      0.194716245866E+07     -0.390517413388E+06      0.131818121025E+00      0.000000000000E+00
     1      0.311260320000E+09      0.198900000000E+34      0.710603241588E+13      0.290634952618E+14      0.192911231658E+07     -0.471668486921E+06      0.131818121025E+00      0.000000000000E+00
     1      0.311891040000E+09      0.198900000000E+34      0.831618050426E+13      0.287406262132E+14      0.190768163022E+07     -0.551993016487E+06      0.131818121025E+00      0.000000000000E+00
     1      0.312521760000E+09      0.198900000000E+34      0.951175545646E+13      0.283673925699E+14      0.188290795434E+07     -0.631350242716E+06      0.131818121025E+00      0.000000000000E+00
     1      0.313152480000E+09      0.198900000000E+34      0.106906621669E+14      0.279444483805E+14      0.185483470192E+07     -0.709601101328E+06      0.131818121025E+00      0.000000000000E+00
     1      0.313783200000E+09      0.198900000000E+34      0.118508347390E+14      0.274725348053E+14      0.182351106806E+07     -0.786608466819E+06      0.131818121025E+00      0.000000000000E+00
     1      0.314413920000E+09      0.198900000000E+34      0.129902401057E+14      0.269524788177E+14      0.178899194377E+07     -0.862237392764E+06      0.131818121025E+00      0.000000000000E+00
     1      0.315044640000E+09      0.198900000000E+34      0.141068815920E+14      0.263851917552E+14      0.175133781978E+07     -0.936355348292E+06      0.131818121025E+00      0.000000000000E+00
     1      0.315675360000E+09      0.198900000000E+34      0.151988024140E+14      0.257716677222E+14      0.171061468055E+07     -0.100883245033E+07      0.131818121025E+00      0.000000000000E+00
