 # Tag              Time [sec]                Mass [g]             posx [code]             posy [code]             velx [code]             vely [code]             accx [code]             accy [code]
     1      0.315360000000E+03      0.198900000000E+34     -0.299196000000E+14      0.626285067377E+09      0.415701626464E+02      0.198593692091E+07      0.131818120938E+00     -0.275925215422E-05
     1      0.631035360000E+06      0.198900000000E+34     -0.298933716045E+14      0.125283056852E+13      0.831575085911E+05      0.198419599270E+07      0.131702238301E+00     -0.551963478023E-02
     1      0.126175536000E+07      0.198900000000E+34     -0.298147586476E+14      0.250284051682E+13      0.166127590160E+06      0.197897801085E+07      0.131355564280E+00     -0.110268087960E-01
     1      0.189247536000E+07      0.198900000000E+34     -0.296838989728E+14      0.374846565069E+13      0.248806420826E+06      0.197029213754E+07      0.130778707803E+00     -0.165146306585E-01
     1      0.252319536000E+07      0.198900000000E+34     -0.295010219790E+14      0.498752318628E+13      0.331049117829E+06      0.195815361199E+07      0.129972681172E+00     -0.219734836662E-01
     1      0.315391536000E+07      0.198900000000E+34     -0.292664482174E+14      0.621784186013E+13      0.412711563588E+06      0.194258372375E+07      0.128938898296E+00     -0.273938019103E-01
     1      0.378463536000E+07      0.198900000000E+34     -0.289805888295E+14      0.743726573413E+13      0.493650658255E+06      0.192360977536E+07      0.127679172215E+00     -0.327660870408E-01
     1      0.441535536000E+07      0.198900000000E+34     -0.286439448262E+14      0.864365797339E+13      0.573724570498E+06      0.190126503448E+07      0.126195711925E+00     -0.380809249137E-01
     1      0.504607536000E+07      0.198900000000E+34     -0.282571062089E+14      0.983490459080E+13      0.652792986048E+06      0.187558867559E+07      0.124491118511E+00     -0.433290020916E-01
     1      0.567679536000E+07      0.198900000000E+34     -0.278207509352E+14      0.110089181515E+14      0.730717353603E+06      0.184662571129E+07      0.122568380591E+00     -0.485011221690E-01
     1      0.630751536000E+07      0.198900000000E+34     -0.273356437304E+14      0.121636414306E+14      0.807361127637E+06      0.181442691344E+07      0.120430869082E+00     -0.535882218915E-01
     1      0.693823536000E+07      0.198900000000E+34     -0.268026347464E+14      0.132970510183E+14      0.882590007695E+06      0.177904872409E+07      0.118082331291E+00     -0.585813870442E-01
     1      0.756895536000E+07      0.198900000000E+34     -0.262226580716E+14      0.144071608655E+14      0.956272173755E+06      0.174055315659E+07      0.115526884353E+00     -0.634718680772E-01
     1      0.819967536000E+07      0.198900000000E+34     -0.255967300932E+14      0.154920257640E+14      0.102827851725E+07      0.169900768688E+07      0.112769008013E+00     -0.682510954443E-01
     1      0.883039536000E+07      0.198900000000E+34     -0.249259477158E+14      0.165497447549E+14      0.109848286732E+07      0.165448513517E+07      0.109813536777E+00     -0.729106946261E-01
     1      0.946111536000E+07      0.198900000000E+34     -0.242114864381E+14      0.175784644598E+14      0.116676221195E+07      0.160706353832E+07      0.106665651438E+00     -0.774425008115E-01
     1      0.100918353600E+08      0.198900000000E+34     -0.234545982923E+14      0.185763823281E+14      0.123299691352E+07      0.155682601304E+07      0.103330869996E+00     -0.818385732116E-01
     1      0.107225553600E+08      0.198900000000E+34     -0.226566096500E+14      0.195417497961E+14      0.129707091850E+07      0.150386061014E+07      0.998150379861E-01     -0.860912089818E-01
     1      0.113532753600E+08      0.198900000000E+34     -0.218189188965E+14      0.204728753501E+14      0.135887196081E+07      0.144826016026E+07      0.961243182290E-01     -0.901929567263E-01
     1      0.119839953600E+08      0.198900000000E+34     -0.209429939800E+14      0.213681274908E+14      0.141829175858E+07      0.139012211103E+07      0.922651800294E-01     -0.941366295617E-01
     1      0.126147153600E+08      0.198900000000E+34     -0.200303698384E+14      0.222259375917E+14      0.147522620389E+07      0.132954835633E+07      0.882443878331E-01     -0.979153177177E-01
     1      0.132454353600E+08      0.198900000000E+34     -0.190826457087E+14      0.230448026473E+14      0.152957554522E+07      0.126664505763E+07      0.840689893677E-01     -0.101522400651E+00
     1      0.138761553600E+08      0.198900000000E+34     -0.181014823240E+14      0.238232879071E+14      0.158124456226E+07      0.120152245786E+07      0.797463032850E-01     -0.104951558654E+00
     1      0.145068753600E+08      0.198900000000E+34     -0.170885990024E+14      0.245600293887E+14      0.163014273273E+07      0.113429468818E+07      0.752839063292E-01     -0.108196783931E+00
     1      0.151375953600E+08      0.198900000000E+34     -0.160457706336E+14      0.252537362678E+14      0.167618439108E+07      0.106507956789E+07      0.706896200510E-01     -0.111252391134E+00
     1      0.157683153600E+08      0.198900000000E+34     -0.149748245677E+14      0.259031931395E+14      0.171928887848E+07      0.993998397886E+06      0.659714970926E-01     -0.114113027330E+00
     1      0.163990353600E+08      0.198900000000E+34     -0.138776374124E+14      0.265072621475E+14      0.175938068426E+07      0.921175748002E+06      0.611378070668E-01     -0.116773681379E+00
     1      0.170297553600E+08      0.198900000000E+34     -0.127561317439E+14      0.270648849772E+14      0.179638957810E+07      0.846739238644E+06      0.561970220557E-01     -0.119229692727E+00
     1      0.176604753600E+08      0.198900000000E+34     -0.116122727371E+14      0.275750847100E+14      0.183025073316E+07      0.770819317056E+06      0.511578017538E-01     -0.121476759567E+00
     1      0.182911953600E+08      0.198900000000E+34     -0.104480647213E+14      0.280369675338E+14      0.186090483957E+07      0.693549028641E+06      0.460289782817E-01     -0.123510946384E+00
     1      0.189219153600E+08      0.198900000000E+34     -0.926554766686E+13      0.284497243089E+14      0.188829820836E+07      0.615063783728E+06      0.408195406973E-01     -0.125328690846E+00
     1      0.195526353600E+08      0.198900000000E+34     -0.806679361063E+13      0.288126319844E+14      0.191238286546E+07      0.535501120192E+06      0.355386192322E-01     -0.126926810052E+00
     1      0.201833553600E+08      0.198900000000E+34     -0.685390302373E+13      0.291250548652E+14      0.193311663572E+07      0.455000462350E+06      0.301954692800E-01     -0.128302506105E+00
     1      0.208140753600E+08      0.198900000000E+34     -0.562900113054E+13      0.293864457241E+14      0.195046321677E+07      0.373702876548E+06      0.247994551646E-01     -0.129453371010E+00
     1      0.214447953600E+08      0.198900000000E+34     -0.439423418401E+13      0.295963467599E+14      0.196439224249E+07      0.291750823881E+06      0.193600337186E-01     -0.130377390894E+00
     1      0.220755153600E+08      0.198900000000E+34     -0.315176570426E+13      0.297543903987E+14      0.197487933621E+07      0.209287910460E+06      0.138867376989E-01     -0.131072949528E+00
     1      0.227062353600E+08      0.198900000000E+34     -0.190377268689E+13      0.298602999366E+14      0.198190615330E+07      0.126458635687E+06      0.838915906957E-02     -0.131538831153E+00
     1      0.233369553600E+08      0.198900000000E+34     -0.652441787827E+12      0.299138900236E+14      0.198546041323E+07      0.434081389592E+05      0.287693218087E-02     -0.131774222605E+00
     1      0.239676753600E+08      0.198900000000E+34      0.600034508739E+12      0.299150669867E+14      0.198553592093E+07     -0.397180547335E+05     -0.264028312525E-02     -0.131778714729E+00
     1      0.245983953600E+08      0.198900000000E+34      0.185146173255E+13      0.298638289932E+14      0.198213257763E+07     -0.122774289891E+06     -0.815281845431E-02     -0.131552303092E+00
     1      0.252291153600E+08      0.198900000000E+34      0.309964727287E+13      0.297602660522E+14      0.197525638081E+07     -0.205615035803E+06     -0.136510138128E-01     -0.131095387973E+00
     1      0.258598353600E+08      0.198900000000E+34      0.434240422076E+13      0.296045598557E+14      0.196491941362E+07     -0.288095141621E+06     -0.191252345467E-01     -0.130408773659E+00
     1      0.264905553600E+08      0.198900000000E+34      0.557755520127E+13      0.293969834584E+14      0.195113982355E+07     -0.370070090766E+06     -0.245658882341E-01     -0.129493667014E+00
     1      0.271212753600E+08      0.198900000000E+34      0.680293618880E+13      0.291379007984E+14      0.193394179049E+07     -0.451396254205E+06     -0.299634415044E-01     -0.128351675360E+00
     1      0.277519953600E+08      0.198900000000E+34      0.801640029904E+13      0.288277660573E+14      0.191335548423E+07     -0.531931142175E+06     -0.353084367521E-01     -0.126984803638E+00
     1      0.283827153600E+08      0.198900000000E+34      0.921582155074E+13      0.284671228632E+14      0.188941701139E+07     -0.611533653894E+06     -0.405915087170E-01     -0.125395450887E+00
     1      0.290134353600E+08      0.198900000000E+34      0.103990985907E+14      0.280566033364E+14      0.186216835203E+07     -0.690064324826E+06     -0.458034009023E-01     -0.123586406017E+00
     1      0.296441553600E+08      0.198900000000E+34      0.115641583757E+14      0.275969269803E+14      0.183165728595E+07     -0.767385571082E+06     -0.509349818005E-01     -0.121560842911E+00
     1      0.302748753600E+08      0.198900000000E+34      0.127089598045E+14      0.270888994191E+14      0.179793730872E+07     -0.843361930496E+06     -0.559772608989E-01     -0.119322314844E+00
     1      0.309055953600E+08      0.198900000000E+34      0.138314972937E+14      0.265334109844E+14      0.176106753785E+07     -0.917860299987E+06     -0.609214044374E-01     -0.116874748237E+00
     1      0.315363153600E+08      0.198900000000E+34      0.149298042916E+14      0.259314351535E+14      0.172111260899E+07     -0.990750168769E+06     -0.657587508902E-01     -0.114222435759E+00
     1      0.321670353600E+08      0.198900000000E+34      0.160019567233E+14      0.252840268424E+14      0.167814256249E+07     -0.106190384701E+07     -0.704808261438E-01     -0.111370028789E+00
     1      0.327977553600E+08      0.198900000000E+34      0.170460763614E+14      0.245923205554E+14      0.163223272054E+07     -0.113119668952E+07     -0.750793583462E-01     -0.108322529243E+00
     1      0.334284753600E+08      0.198900000000E+34      0.180603341159E+14      0.238575283959E+14      0.158346355496E+07     -0.119850731413E+07     -0.795462923996E-01     -0.105085280788E+00
     1      0.340591953600E+08      0.198900000000E+34      0.190429532385E+14      0.230809379410E+14      0.153192054604E+07     -0.126371781429E+07     -0.838738040717E-01     -0.101663959465E+00
     1      0.346899153600E+08      0.198900000000E+34      0.199922124343E+14      0.222639099838E+14      0.147769403262E+07     -0.132671396562E+07     -0.880543137019E-01     -0.980645637168E-01
     1      0.353206353600E+08      0.198900000000E+34      0.209064488771E+14      0.214078761478E+14      0.142087905355E+07     -0.138738542594E+07     -0.920804994765E-01     -0.942934038622E-01
     1      0.359513553600E+08      0.198900000000E+34      0.217840611216E+14      0.205143363767E+14      0.136157518108E+07     -0.144562592851E+07     -0.959453102514E-01     -0.903570910165E-01
     1      0.365820753600E+08      0.198900000000E+34      0.226235119078E+14      0.195848563052E+14      0.129988634616E+07     -0.150133346815E+07     -0.996419778982E-01     -0.862625254892E-01
     1      0.372127953599E+08      0.198900000000E+34      0.234233308533E+14      0.186210645143E+14      0.123592065623E+07     -0.155441047982E+07     -0.103164029154E+00     -0.820168846744E-01
     1      0.378435153599E+08      0.198900000000E+34      0.241821170281E+14      0.176246496768E+14      0.116979020558E+07     -0.160476400945E+07     -0.106505296951E+00     -0.776276104553E-01
     1      0.384742353599E+08      0.198900000000E+34      0.248985414073E+14      0.165973575969E+14      0.110161087885E+07     -0.165230587667E+07     -0.109659931214E+00     -0.731023961476E-01
     1      0.391049553599E+08      0.198900000000E+34      0.255713491986E+14      0.155409881506E+14      0.103150214782E+07     -0.169695282915E+07     -0.112622409090E+00     -0.684491730015E-01
     1      0.397356753599E+08      0.198900000000E+34      0.261993620387E+14      0.144573921309E+14      0.959586861940E+06     -0.173862668832E+07     -0.115387544616E+00     -0.636760962889E-01
     1      0.403663953599E+08      0.198900000000E+34      0.267814800559E+14      0.133484680043E+14      0.885991032977E+06     -0.177725448615E+07     -0.117950497787E+00     -0.587915309980E-01
     1      0.409971153599E+08      0.198900000000E+34      0.273166837958E+14      0.122161585834E+14      0.810843614090E+06     -0.181276859284E+07     -0.120306783016E+00     -0.538040371625E-01
     1      0.416278353599E+08      0.198900000000E+34      0.278040360051E+14      0.110624476223E+14      0.734276273800E+06     -0.184510683515E+07     -0.122452276982E+00     -0.487223548496E-01
     1      0.422585553599E+08      0.198900000000E+34      0.282426832719E+14      0.988935634050E+13      0.656423165195E+06     -0.187421260506E+07     -0.124383225826E+00     -0.435553888339E-01
     1      0.428892753599E+08      0.198900000000E+34      0.286318575188E+14      0.869893988067E+13      0.577420690800E+06     -0.190003495882E+07     -0.126096251715E+00     -0.383121929837E-01
     1      0.435199953599E+08      0.198900000000E+34      0.289708773466E+14      0.749328370776E+13      0.497407263520E+06     -0.192252870595E+07     -0.127588358733E+00     -0.330019543887E-01
     1      0.441507153599E+08      0.198900000000E+34      0.292591492258E+14      0.627449995478E+13      0.416523064068E+06     -0.194165448824E+07     -0.128856938112E+00     -0.276339772539E-01
     1      0.447814353599E+08      0.198900000000E+34      0.294961685347E+14      0.504472372212E+13      0.334909795318E+06     -0.195737884845E+07     -0.129899772780E+00     -0.222176665916E-01
     1      0.454121553599E+08      0.198900000000E+34      0.296815204407E+14      0.380610933667E+13      0.252710434002E+06     -0.196967428872E+07     -0.130715041219E+00     -0.167625117369E-01
     1      0.460428753599E+08      0.198900000000E+34      0.298148806257E+14      0.256082657754E+13      0.170068980189E+06     -0.197851931852E+07     -0.131301320634E+00     -0.112780697183E-01
     1      0.466735953599E+08      0.198900000000E+34      0.298960158513E+14      0.131105687466E+13      0.871302049866E+05     -0.198389849207E+07     -0.131657589424E+00     -0.577394851021E-02
     1      0.473043153599E+08      0.198900000000E+34      0.299247843658E+14      0.589894873092E+11      0.403939690928E+04     -0.198580243517E+07     -0.131783228943E+00     -0.259790198985E-03
     1      0.479350353599E+08      0.198900000000E+34      0.299011361500E+14     -0.119318233104E+13     -0.790578926469E+05     -0.198422786140E+07     -0.131678024563E+00      0.525474591003E-02
     1      0.485657553599E+08      0.198900000000E+34      0.298251130028E+14     -0.244326517474E+13     -0.162016104374E+06     -0.197917757762E+07     -0.131342166025E+00      0.107600002134E-01
     1      0.491964753599E+08      0.198900000000E+34      0.296968484658E+14     -0.368906932802E+13     -0.244689926019E+06     -0.197066047886E+07     -0.130776247080E+00      0.162463297295E-01
     1      0.498271953599E+08      0.198900000000E+34      0.295165675873E+14     -0.492841260053E+13     -0.326934546906E+06     -0.195869153251E+07     -0.129981264429E+00      0.217041249874E-01
     1      0.504579153599E+08      0.198900000000E+34      0.292845865257E+14     -0.615912414947E+13     -0.408605911560E+06     -0.194329175183E+07     -0.128958615947E+00      0.271238268559E-01
     1      0.510886353599E+08      0.198900000000E+34      0.290013119938E+14     -0.737904828179E+13     -0.489560971995E+06     -0.192448815896E+07     -0.127710098217E+00      0.324959432819E-01
     1      0.517193553599E+08      0.198900000000E+34      0.286672405442E+14     -0.858604822963E+13     -0.569657938225E+06     -0.190231373738E+07     -0.126237903355E+00      0.378110659105E-01
     1      0.523500753599E+08      0.198900000000E+34      0.282829576974E+14     -0.977800989252E+13     -0.648756526552E+06     -0.187680737385E+07     -0.124544615148E+00      0.430598865561E-01
     1      0.529807953599E+08      0.198900000000E+34      0.278491369145E+14     -0.109528455397E+14     -0.726718205204E+06     -0.184801379017E+07     -0.122633204512E+00      0.482332134971E-01
     1      0.536115153599E+08      0.198900000000E+34      0.273665384150E+14     -0.121084974663E+14     -0.803406436893E+06     -0.181598346458E+07     -0.120507024256E+00      0.533219875650E-01
     1      0.542422353599E+08      0.198900000000E+34      0.268360078440E+14     -0.132429415963E+14     -0.878686917858E+06     -0.178077254318E+07     -0.118169803201E+00      0.583172979996E-01
     1      0.548729553599E+08      0.198900000000E+34      0.262584747886E+14     -0.143541910273E+14     -0.952427812997E+06     -0.174244274137E+07     -0.115625639618E+00      0.632103980433E-01
     1      0.555036753599E+08      0.198900000000E+34      0.256349511479E+14     -0.154402995091E+14     -0.102449998665E+07     -0.170106123559E+07     -0.112878994040E+00      0.679927202463E-01
     1      0.561343953599E+08      0.198900000000E+34      0.249665293596E+14     -0.164993648518E+14     -0.109477722864E+07     -0.165670054548E+07     -0.109934681427E+00      0.726558914573E-01
     1      0.567651153599E+08      0.198900000000E+34      0.242543804838E+14     -0.175295322560E+14     -0.116313647521E+07     -0.160943840669E+07     -0.106797862716E+00      0.771917474722E-01
     1      0.573958353599E+08      0.198900000000E+34      0.234997521513E+14     -0.185289975604E+14     -0.122945802439E+07     -0.155935763458E+07     -0.103474035770E+00      0.815923473159E-01
     1      0.580265553599E+08      0.198900000000E+34      0.227039663764E+14     -0.194960104001E+14     -0.129362574550E+07     -0.150654597900E+07     -0.999690257301E-01      0.858499871326E-01
     1      0.586572753599E+08      0.198900000000E+34      0.218684172400E+14     -0.204288772711E+14     -0.135552728240E+07     -0.145109597052E+07     -0.962889748045E-01      0.899572136594E-01
     1      0.592879953599E+08      0.198900000000E+34      0.209945684468E+14     -0.213259644946E+14     -0.141505425007E+07     -0.139310475819E+07     -0.924403314976E-01      0.939068372606E-01
     1      0.599187153599E+08      0.198900000000E+34      0.200839507604E+14     -0.221857010772E+14     -0.147210242430E+07     -0.133267393928E+07     -0.884298393060E-01      0.976919444999E-01
     1      0.605494353599E+08      0.198900000000E+34      0.191381593211E+14     -0.230065814601E+14     -0.152657192400E+07     -0.126990938130E+07     -0.842645249001E-01      0.101305910228E+00
     1      0.611801553599E+08      0.198900000000E+34      0.181588508510E+14     -0.237871681549E+14     -0.157836738602E+07     -0.120492103641E+07     -0.799516858100E-01      0.104742409164E+00
     1      0.618108753599E+08      0.198900000000E+34      0.171477407519E+14     -0.245260942594E+14     -0.162739813190E+07     -0.113782274882E+07     -0.754988776395E-01      0.107995426956E+00
     1      0.624415953599E+08      0.198900000000E+34      0.161066000994E+14     -0.252220658495E+14     -0.167357832655E+07     -0.106873205535E+07     -0.709139008291E-01      0.111059270688E+00
     1      0.630723153599E+08      0.198900000000E+34      0.150372525409E+14     -0.258738642443E+14     -0.171682712836E+07     -0.997769979498E+06     -0.662047869920E-01      0.113928578832E+00
     1      0.637030353599E+08      0.198900000000E+34      0.139415711010E+14     -0.264803481381E+14     -0.175706883061E+07     -0.925060819452E+06     -0.613797848466E-01      0.116598330620E+00
     1      0.643337553599E+08      0.198900000000E+34      0.128214749002E+14     -0.270404555977E+14     -0.179423299385E+07     -0.850731930374E+06     -0.564473457703E-01      0.119063854810E+00
     1      0.649644753599E+08      0.198900000000E+34      0.116789257941E+14     -0.275532059204E+14     -0.182825456909E+07     -0.774913501341E+06     -0.514161089996E-01      0.121320837852E+00
     1      0.655951953599E+08      0.198900000000E+34      0.105159249365E+14     -0.280177013501E+14     -0.185907401152E+07     -0.697738327332E+06     -0.462948865034E-01      0.123365331419E+00
     1      0.662259153599E+08      0.198900000000E+34      0.933450927492E+13     -0.284331286473E+14     -0.188663738463E+07     -0.619341576665E+06     -0.410926475541E-01      0.125193759305E+00
     1      0.668566353599E+08      0.198900000000E+34      0.813674798281E+13     -0.287987605121E+14     -0.191089645446E+07     -0.539860554294E+06     -0.358185030249E-01      0.126802923665E+00
     1      0.674873553599E+08      0.198900000000E+34      0.692473883600E+13     -0.291139568558E+14     -0.193180877391E+07     -0.459434461373E+06     -0.304816894412E-01      0.128190010605E+00
     1      0.681180753599E+08      0.198900000000E+34      0.570060453875E+13     -0.293781659206E+14     -0.194933775692E+07     -0.378204151508E+06     -0.250915528114E-01      0.129352595083E+00
     1      0.687487953599E+08      0.198900000000E+34      0.446648900638E+13     -0.295909252438E+14     -0.196345274235E+07     -0.296311884126E+06     -0.196575322690E-01      0.130288645146E+00
     1      0.693795153599E+08      0.198900000000E+34      0.322455361096E+13     -0.297518624665E+14     -0.197412904753E+07     -0.213901075401E+06     -0.141891435509E-01      0.130996525472E+00
     1      0.700102353599E+08      0.198900000000E+34      0.197697339637E+13     -0.298606959840E+14     -0.198134801133E+07     -0.131116047150E+06     -0.869596234384E-02      0.131475000216E+00
     1      0.706409553599E+08      0.198900000000E+34      0.725933269617E+12     -0.299172354371E+14     -0.198509702671E+07     -0.481017741622E+05     -0.318760752594E-02      0.131723235165E+00
     1      0.712716753599E+08      0.198900000000E+34     -0.526375825073E+12     -0.299213820445E+14     -0.198536956261E+07      0.349963696123E+05      0.232627566648E-02      0.131740799184E+00
     1      0.719023953599E+08      0.198900000000E+34     -0.177776074263E+13     -0.298731287743E+14     -0.198216517531E+07      0.118032865562E+06      0.783603251743E-02      0.131527664957E+00
     1      0.725331153599E+08      0.198900000000E+34     -0.302602997732E+13     -0.297725603544E+14     -0.197548950907E+07      0.200862305161E+06      0.133320157259E-01      0.131084209031E+00
     1      0.731638353599E+08      0.198900000000E+34     -0.426899749995E+13     -0.296198531236E+14     -0.196535428612E+07      0.283339644520E+06      0.188046022872E-01      0.130411211143E+00
     1      0.737945553599E+08      0.198900000000E+34     -0.550448658539E+13     -0.294152747207E+14     -0.195177728601E+07      0.365320458289E+06      0.242442103309E-01      0.129509852844E+00
     1      0.744252753599E+08      0.198900000000E+34     -0.673033362384E+13     -0.291591836154E+14     -0.193478231442E+07      0.446661192473E+06      0.296413158871E-01      0.128381715431E+00
     1      0.750559953599E+08      0.198900000000E+34     -0.794439190893E+13     -0.288520284790E+14     -0.191439916134E+07      0.527219415722E+06      0.349864695505E-01      0.127028777162E+00
     1      0.756867153599E+08      0.198900000000E+34     -0.914453539627E+13     -0.284943473977E+14     -0.189066354886E+07      0.606854068644E+06      0.402703130145E-01      0.125453409798E+00
     1      0.763174353599E+08      0.198900000000E+34     -0.103286624257E+14     -0.280867669291E+14     -0.186361706850E+07      0.685425710721E+06      0.454835954449E-01      0.123658374435E+00
     1      0.769481553599E+08      0.198900000000E+34     -0.114946994010E+14     -0.276300010047E+14     -0.183330710835E+07      0.762796764383E+06      0.506171896663E-01      0.121646816676E+00
     1      0.775788753599E+08      0.198900000000E+34     -0.126406044199E+14     -0.271248496779E+14     -0.179978677000E+07      0.838831755822E+06      0.556621081316E-01      0.119422261115E+00
     1      0.782095953599E+08      0.198900000000E+34     -0.137643708491E+14     -0.265721977230E+14     -0.176311477553E+07      0.913397552115E+06      0.606095186477E-01      0.116988605167E+00
     1      0.788403153599E+08      0.198900000000E+34     -0.148640308376E+14     -0.259730130846E+14     -0.172335536462E+07      0.986363594257E+06      0.654507598289E-01      0.114350112245E+00
     1      0.794710353599E+08      0.198900000000E+34     -0.159376587612E+14     -0.253283451819E+14     -0.168057818203E+07      0.105760212568E+07      0.701773562523E-01      0.111511404292E+00
     1      0.801017553599E+08      0.198900000000E+34     -0.169833745941E+14     -0.246393230709E+14     -0.163485815563E+07      0.112698841587E+07      0.747810332874E-01      0.108477453694E+00
     1      0.807324753599E+08      0.198900000000E+34     -0.179993472000E+14     -0.239071534658E+14     -0.158627536514E+07      0.119440097869E+07      0.792537315752E-01      0.105253574570E+00
     1      0.813631953599E+08      0.198900000000E+34     -0.189837975377E+14     -0.231331186263E+14     -0.153491490195E+07      0.125972178501E+07      0.835876211306E-01      0.101845413480E+00
     1      0.819939153599E+08      0.198900000000E+34     -0.199350017757E+14     -0.223185741112E+14     -0.148086672002E+07      0.132283646930E+07      0.877751150438E-01      0.982589395294E-01
     1      0.826246353599E+08      0.198900000000E+34     -0.208512943098E+14     -0.214649464045E+14     -0.142422547844E+07      0.138363452980E+07      0.918088827568E-01      0.945004339329E-01
     1      0.832553553599E+08      0.198900000000E+34     -0.217310706788E+14     -0.205737304169E+14     -0.136509037565E+07      0.144200952195E+07      0.956818628919E-01      0.905764790140E-01
     1      0.838860753599E+08      0.198900000000E+34     -0.225727903735E+14     -0.196464868678E+14     -0.130356497571E+07      0.149785924469E+07      0.993872756095E-01      0.864939466874E-01
     1      0.845167953599E+08      0.198900000000E+34     -0.233749795332E+14     -0.186848395523E+14     -0.123975702702E+07      0.155108591934E+07      0.102918634473E+00      0.822599864316E-01
     1      0.851475153599E+08      0.198900000000E+34     -0.241362335258E+14     -0.176904724973E+14     -0.117377827361E+07      0.160159636075E+07      0.106269757804E+00      0.778820127761E-01
     1      0.857782353599E+08      0.198900000000E+34     -0.248552194065E+14     -0.166651270123E+14     -0.110574425950E+07      0.164930214044E+07      0.109434779496E+00      0.733676923249E-01
     1      0.864089553599E+08      0.198900000000E+34     -0.255306782515E+14     -0.156105986406E+14     -0.103577412641E+07      0.169411974132E+07      0.112408159290E+00      0.687249303386E-01
     1      0.870396753599E+08      0.198900000000E+34     -0.261614273612E+14     -0.145287340143E+14     -0.963990405144E+06      0.173597070392E+07      0.115184692468E+00      0.639618568984E-01
     1      0.876703953599E+08      0.198900000000E+34     -0.267463623308E+14     -0.134214276212E+14     -0.890518801041E+06      0.177478176371E+07      0.117759518965E+00      0.590868126768E-01
     1      0.883011153599E+08      0.198900000000E+34     -0.272844589832E+14     -0.122906184870E+14     -0.815487973903E+06      0.181048497935E+07      0.120128131877E+00      0.541083343391E-01
     1      0.889318353599E+08      0.198900000000E+34     -0.277747751621E+14     -0.111382867803E+14     -0.739029312717E+06      0.184301785159E+07      0.122286385356E+00      0.490351396020E-01
     1      0.895625553599E+08      0.198900000000E+34     -0.282164523804E+14     -0.996645034440E+13     -0.661276705612E+06      0.187232343270E+07      0.124230501863E+00      0.438761119741E-01
     1      0.901932753598E+08      0.198900000000E+34     -0.286087173236E+14     -0.877716116476E+13     -0.582366305438E+06      0.189835042614E+07      0.125957078790E+00      0.386402852065E-01
     1      0.908239953598E+08      0.198900000000E+34     -0.289508832025E+14     -0.757250177533E+13     -0.502436291379E+06      0.192105327634E+07      0.127463094413E+00      0.333368274799E-01
     1      0.914547153598E+08      0.198900000000E+34     -0.292423509559E+14     -0.635458161212E+13     -0.421626627015E+06      0.194039224845E+07      0.128745913190E+00      0.279750253553E-01
     1      0.920854353598E+08      0.198900000000E+34     -0.294826102983E+14     -0.512553331944E+13     -0.340078815259E+06      0.195633349789E+07      0.129803290375E+00      0.225642675173E-01
     1      0.927161553598E+08      0.198900000000E+34     -0.296712406131E+14     -0.388750901562E+13     -0.257935650603E+06      0.196884912959E+07      0.130633375951E+00      0.171140283383E-01
     1      0.933468753598E+08      0.198900000000E+34     -0.298079116888E+14     -0.264267652458E+13     -0.175340969085E+06      0.197791724680E+07      0.131234717877E+00      0.116338512916E-01
     1      0.939775953598E+08      0.198900000000E+34     -0.298923842960E+14     -0.139321557990E+13     -0.924393964526E+05      0.198352198945E+07      0.131606264628E+00      0.613333224340E-02
     1      0.946083153598E+08      0.198900000000E+34     -0.299245106065E+14     -0.141314008112E+12     -0.937609491865E+04      0.198565356184E+07      0.131747367044E+00      0.622102651593E-03
     1      0.952390353598E+08      0.198900000000E+34     -0.299042344508E+14      0.111083610223E+13      0.737034910072E+05      0.198430824986E+07      0.131657779468E+00     -0.489018729734E-02
     1      0.958697553598E+08      0.198900000000E+34     -0.298315914164E+14      0.236104223889E+13      0.156653889194E+06      0.197948842740E+07      0.131337660181E+00     -0.103938855857E-01
     1      0.965004753598E+08      0.198900000000E+34     -0.297067087849E+14      0.360711530504E+13      0.239329854609E+06      0.197120255221E+07      0.130787571131E+00     -0.158793552652E-01
     1      0.971311953598E+08      0.198900000000E+34     -0.295298053082E+14      0.484687345235E+13      0.321586623650E+06      0.195946515108E+07      0.130008476947E+00     -0.213369913328E-01
     1      0.977619153598E+08      0.198900000000E+34     -0.293011908254E+14      0.607814590142E+13      0.403280167630E+06      0.194429679439E+07      0.129001743261E+00     -0.267572375501E-01
     1      0.983926353598E+08      0.198900000000E+34     -0.290212657193E+14      0.729877674273E+13      0.484267444976E+06      0.192572406003E+07      0.127769134314E+00     -0.321306031785E-01
     1      0.990233553598E+08      0.198900000000E+34     -0.286905202149E+14      0.850662871162E+13      0.564406651712E+06      0.190377948692E+07      0.126312809872E+00     -0.374476796009E-01
     1      0.996540753598E+08      0.198900000000E+34     -0.283095335204E+14      0.969958693060E+13      0.643557469765E+06      0.187850151792E+07      0.124635321451E+00     -0.426991567991E-01
     1      0.100284795360E+09      0.198900000000E+34     -0.278789728126E+14      0.108755626124E+14      0.721581312678E+06      0.184993443256E+07      0.122739607844E+00     -0.478758396595E-01
     1      0.100915515360E+09      0.198900000000E+34     -0.273995920678E+14      0.120324967173E+14      0.798341568289E+06      0.181812826946E+07      0.120628989984E+00     -0.529686640789E-01
     1      0.101546235360E+09      0.198900000000E+34     -0.268722307412E+14      0.131683635586E+14      0.873703837955E+06      0.178313873868E+07      0.118307165128E+00     -0.579687128398E-01
     1      0.102176955360E+09      0.198900000000E+34     -0.262978122960E+14      0.142811743491E+14      0.947536171902E+06      0.174502712414E+07      0.115778200382E+00     -0.628672312304E-01
     1      0.102807675360E+09      0.198900000000E+34     -0.256773425864E+14      0.153689806839E+14      0.101970930029E+07      0.170386017626E+07      0.113046525583E+00     -0.676556423794E-01
     1      0.103438395360E+09      0.198900000000E+34     -0.250119080952E+14      0.164298779510E+14      0.109009685957E+07      0.165970999506E+07      0.110116925541E+00     -0.723255622804E-01
     1      0.104069115360E+09      0.198900000000E+34     -0.243026740310E+14      0.174620086672E+14      0.115857561377E+07      0.161265390388E+07      0.106994531655E+00     -0.768688144779E-01
     1      0.104699835360E+09      0.198900000000E+34     -0.235508822869E+14      0.184635657292E+14      0.122502567032E+07      0.156277431391E+07      0.103684812936E+00     -0.812774443910E-01
     1      0.105330555360E+09      0.198900000000E+34     -0.227578492658E+14      0.194327955786E+14      0.128933068994E+07      0.151015857983E+07      0.100193566418E+00     -0.855437332482E-01
     1      0.105961275360E+09      0.198900000000E+34     -0.219249635743E+14      0.203680012711E+14      0.135137809043E+07      0.145489884683E+07      0.965269070084E-01     -0.896602116090E-01
     1      0.106591995360E+09      0.198900000000E+34     -0.210536835905E+14      0.212675454485E+14      0.141105924377E+07      0.139709188920E+07      0.926912567778E-01     -0.936196724493E-01
     1      0.107222715360E+09      0.198900000000E+34     -0.201455349101E+14      0.221298532044E+14      0.146826966634E+07      0.133683894078E+07      0.886933337073E-01     -0.974151837872E-01
     1      0.107853435360E+09      0.198900000000E+34     -0.192021076740E+14      0.229534148422E+14      0.152290920189E+07      0.127424551767E+07      0.845401399209E-01     -0.101040100826E+00
     1      0.108484155360E+09      0.198900000000E+34     -0.182250537834E+14      0.237367885177E+14      0.157488219688E+07      0.120942123335E+07      0.802389494180E-01     -0.104488077597E+00
     1      0.109114875360E+09      0.198900000000E+34     -0.172160840067E+14      0.244786027635E+14      0.162409766802E+07      0.114247960675E+07      0.757972953290E-01     -0.107753078072E+00
     1      0.109745595360E+09      0.198900000000E+34     -0.161769649831E+14      0.251775588898E+14      0.167046946152E+07      0.107353786333E+07      0.712229567173E-01     -0.110829386741E+00
     1      0.110376315360E+09      0.198900000000E+34     -0.151095161285E+14      0.258324332576E+14      0.171391640395E+07      0.100271672978E+07      0.665239449490E-01     -0.113711618623E+00
     1      0.111007035360E+09      0.198900000000E+34     -0.140156064493E+14      0.264420794210E+14      0.175436244436E+07      0.930140222499E+06      0.617084896561E-01     -0.116394728699E+00
     1      0.111637755360E+09      0.198900000000E+34     -0.128971512688E+14      0.270054301337E+14      0.179173678741E+07      0.855935430423E+06      0.567850243160E-01     -0.118874020747E+00
     1      0.112268475360E+09      0.198900000000E+34     -0.117561088731E+14      0.275214992171E+14      0.182597401731E+07      0.780232292352E+06      0.517621714744E-01     -0.121145155566E+00
     1      0.112899195360E+09      0.198900000000E+34     -0.105944770813E+14      0.279893832862E+14      0.185701421232E+07      0.703163369363E+06      0.466487276359E-01     -0.123204158581E+00
     1      0.113529915360E+09      0.198900000000E+34     -0.941428974676E+13      0.284082633307E+14      0.188480304961E+07      0.624863612601E+06      0.414536478504E-01     -0.125047426795E+00
     1      0.114160635360E+09      0.198900000000E+34     -0.821761319534E+13      0.287774061478E+14      0.190929190033E+07      0.545470126898E+06      0.361860300210E-01     -0.126671735105E+00
     1      0.114791355360E+09      0.198900000000E+34     -0.700654260674E+13      0.290961656255E+14      0.193043791474E+07      0.465121930610E+06      0.308550989612E-01     -0.128074241939E+00
     1      0.115422075360E+09      0.198900000000E+34     -0.578319834530E+13      0.293639838729E+14      0.194820409711E+07      0.383959712114E+06      0.254701902306E-01     -0.129252494236E+00
     1      0.116052795360E+09      0.198900000000E+34     -0.454972224686E+13      0.295803921954E+14      0.196255937046E+07      0.302125583377E+06      0.200407337760E-01     -0.130204431736E+00
     1      0.116683515360E+09      0.198900000000E+34     -0.330827386795E+13      0.297450119150E+14      0.197347863086E+07      0.219762831038E+06      0.145762374073E-01     -0.130928390579E+00
     1      0.117314235360E+09      0.198900000000E+34     -0.206102670414E+13      0.298575550317E+14      0.198094279136E+07      0.137015665436E+06      0.908627013691E-02     -0.131423106219E+00
     1      0.117944955360E+09      0.198900000000E+34     -0.810164383965E+12      0.299178247268E+14      0.198493881522E+07      0.540289680248E+05      0.358044541293E-02     -0.131687715624E+00
     1      0.118575675360E+09      0.198900000000E+34      0.442123154846E+12      0.299257157060E+14      0.198545973870E+07     -0.290519623861E+05     -0.193159572608E-02     -0.131721758787E+00
     1      0.119206395360E+09      0.198900000000E+34      0.169364350005E+13      0.298812143827E+14      0.198250468313E+07     -0.112081664110E+06     -0.744020154379E-02     -0.131525179515E+00
     1      0.119837115360E+09      0.198900000000E+34      0.294220560386E+13      0.297843989002E+14      0.197607885628E+07     -0.194914767347E+06     -0.129357265171E-01     -0.131098325523E+00
     1      0.120467835360E+09      0.198900000000E+34      0.418562361951E+13      0.296354389937E+14      0.196619354317E+07     -0.277406248772E+06     -0.184085482360E-01     -0.130441947811E+00
     1      0.121098555360E+09      0.198900000000E+34      0.542172072848E+13      0.294345956916E+14      0.195286608615E+07     -0.359411685520E+06     -0.238490842618E-01     -0.129557199338E+00
     1      0.121729275360E+09      0.198900000000E+34      0.664833295199E+13      0.291822208570E+14      0.193611985439E+07     -0.440787508103E+06     -0.292478089151E-01     -0.128445632989E+00
     1      0.122359995360E+09      0.198900000000E+34      0.786331293983E+13      0.288787565697E+14      0.191598420282E+07     -0.521391251826E+06     -0.345952699635E-01     -0.127109198843E+00
     1      0.122990715360E+09      0.198900000000E+34      0.906453372998E+13      0.285247343516E+14      0.189249442059E+07     -0.601081806264E+06     -0.398821051795E-01     -0.125550240744E+00
     1      0.123621435360E+09      0.198900000000E+34      0.102498924725E+14      0.281207742335E+14      0.186569166908E+07     -0.679719662349E+06     -0.450990587402E-01     -0.123771492179E+00
     1      0.124252155360E+09      0.198900000000E+34      0.114173141109E+14      0.276675836686E+14      0.183562290975E+07     -0.757167156654E+06     -0.502369974393E-01     -0.121776071478E+00
     1      0.124882875360E+09      0.198900000000E+34      0.125647550151E+14      0.271659562919E+14      0.180234082165E+07     -0.833288712427E+06     -0.552869266833E-01     -0.119567476335E+00
     1      0.125513595360E+09      0.198900000000E+34      0.136902065591E+14      0.266167705291E+14      0.176590370910E+07     -0.907951076960E+06     -0.602400062442E-01     -0.117149577665E+00
     1      0.126144315360E+09      0.198900000000E+34      0.147916986369E+14      0.260209880575E+14      0.172637539938E+07     -0.981023554884E+06     -0.650875657404E-01     -0.114526612812E+00
     1      0.126775035360E+09      0.198900000000E+34      0.158673031113E+14      0.253796521199E+14      0.168382513082E+07     -0.105237823697E+07     -0.698211198186E-01     -0.111703178107E+00
     1      0.127405755360E+09      0.198900000000E+34      0.169151371892E+14      0.246938856970E+14      0.163832743143E+07     -0.112189022403E+07     -0.744323830107E-01     -0.108684220802E+00
     1      0.128036475360E+09      0.198900000000E+34      0.179333667170E+14      0.239648895396E+14      0.158996198816E+07     -0.118943784556E+07     -0.789132842394E-01     -0.105475030389E+00
     1      0.128667195360E+09      0.198900000000E+34      0.189202093909E+14      0.231939400648E+14      0.153881350728E+07     -0.125490287271E+07     -0.832559809470E-01     -0.102081229318E+00
     1      0.129297915360E+09      0.198900000000E+34      0.198739378763E+14      0.223823871195E+14      0.148497156587E+07     -0.131817072517E+07     -0.874528728223E-01     -0.985087631370E-01
     1      0.129928635360E+09      0.198900000000E+34      0.207928828310E+14      0.215316516160E+14      0.142853045483E+07     -0.137913067173E+07     -0.914966151020E-01     -0.947638900557E-01
     1      0.130559355360E+09      0.198900000000E+34      0.216754358266E+14      0.206432230426E+14      0.136958901357E+07     -0.143767602406E+07     -0.953801314239E-01     -0.908531699744E-01
     1      0.131190075360E+09      0.198900000000E+34      0.225200521630E+14      0.197186568544E+14      0.130825045688E+07     -0.149370432335E+07     -0.990966262073E-01     -0.867834529770E-01
     1      0.131820795360E+09      0.198900000000E+34      0.233252535717E+14      0.187595717491E+14      0.124462219399E+07     -0.154711751962E+07     -0.102639596542E+00     -0.825618673193E-01
     1      0.132451515360E+09      0.198900000000E+34      0.240896308021E+14      0.177676468314E+14      0.117881564043E+07     -0.159782214322E+07     -0.106002843562E+00     -0.781958069298E-01
     1      0.133082235360E+09      0.198900000000E+34      0.248118460872E+14      0.167446186723E+14      0.111094602274E+07     -0.164572946835E+07     -0.109180483286E+00     -0.736929184465E-01
     1      0.133712955360E+09      0.198900000000E+34      0.254906354844E+14      0.156922782678E+14      0.104113217666E+07     -0.169075566825E+07     -0.112166956907E+00     -0.690610878124E-01
     1      0.134343675360E+09      0.198900000000E+34      0.261248110860E+14      0.146124679020E+14      0.969496338922E+06     -0.173282196177E+07     -0.114957040506E+00     -0.643084264516E-01
     1      0.134974395360E+09      0.198900000000E+34      0.267132630975E+14      0.135070779213E+14      0.896163933097E+06     -0.177185475118E+07     -0.117545854185E+00     -0.594432570530E-01
     1      0.135605115360E+09      0.198900000000E+34      0.272549617783E+14      0.123780434234E+14      0.821263349927E+06     -0.180778575077E+07     -0.119928870593E+00     -0.544740989841E-01
     1      0.136235835360E+09      0.198900000000E+34      0.277489592430E+14      0.112273408697E+14      0.744925722426E+06     -0.184055210628E+07     -0.122101922833E+00     -0.494096533622E-01
     1      0.136866555360E+09      0.198900000000E+34      0.281943911184E+14      0.100569846235E+14      0.667284696211E+06     -0.187009650467E+07     -0.124061211734E+00     -0.442587878085E-01
     1      0.137497275360E+09      0.198900000000E+34      0.285904780550E+14      0.886902342375E+13      0.588476195439E+06     -0.189636727434E+07     -0.125803312490E+00     -0.390305209119E-01
     1      0.138127995360E+09      0.198900000000E+34      0.289365270890E+14      0.766553679727E+13      0.508638184780E+06     -0.191931847531E+07     -0.127325180628E+00     -0.337340064298E-01
     1      0.138758715360E+09      0.198900000000E+34      0.292319328536E+14      0.644863141837E+13      0.427910427818E+06     -0.193890997946E+07     -0.128624157318E+00     -0.283785172541E-01
     1      0.139389435360E+09      0.198900000000E+34      0.294761786366E+14      0.522043742033E+13      0.346434242324E+06     -0.195510754056E+07     -0.129697974005E+00     -0.229734291696E-01
     1      0.140020155360E+09      0.198900000000E+34      0.296688372824E+14      0.398310466628E+13      0.264352252819E+06     -0.196788285401E+07     -0.130544756360E+00     -0.175282044343E-01
     1      0.140650875360E+09      0.198900000000E+34      0.298095719383E+14      0.273879898558E+13      0.181808140872E+06     -0.197721360613E+07     -0.131163027531E+00     -0.120523752095E-01
     1      0.141281595360E+09      0.198900000000E+34      0.298981366413E+14      0.148969838245E+13      0.989463935499E+05     -0.198308351305E+07     -0.131551710711E+00     -0.655552686958E-02
     1      0.141912315360E+09      0.198900000000E+34      0.299343767469E+14      0.237989223351E+12      0.159120504821E+05     -0.198548234892E+07     -0.131710130997E+00     -0.104728122017E-02
     1      0.142543035360E+09      0.198900000000E+34      0.299182291974E+14     -0.101413759003E+13     -0.671495500291E+05     -0.198440596365E+07     -0.131638016546E+00      0.446272034617E-02
     1      0.143173755360E+09      0.198900000000E+34      0.298497226303E+14     -0.226449045567E+13     -0.150093025407E+06     -0.197985628987E+07     -0.131335499025E+00      0.996483372629E-02
     1      0.143804475360E+09      0.198900000000E+34      0.297289773259E+14     -0.351088090714E+13     -0.232773203262E+06     -0.197184133940E+07     -0.130803113360E+00      0.154494289862E-01
     1      0.144435195360E+09      0.198900000000E+34      0.295562049946E+14     -0.475112744391E+13     -0.315045375465E+06     -0.196037518894E+07     -0.130041796774E+00      0.209069072140E-01
     1      0.145065915360E+09      0.198900000000E+34      0.293317084043E+14     -0.598305934933E+13     -0.396765551397E+06     -0.194547795521E+07     -0.129052887122E+00      0.263277173175E-01
     1      0.145696635360E+09      0.198900000000E+34      0.290558808481E+14     -0.720452048957E+13     -0.477790709931E+06     -0.192717575956E+07     -0.127838120523E+00      0.317023727354E-01
     1      0.146327355360E+09      0.198900000000E+34      0.287292054544E+14     -0.841337308693E+13     -0.557979049692E+06     -0.190550068199E+07     -0.126399628306E+00      0.370214680350E-01
     1      0.146958075360E+09      0.198900000000E+34      0.283522543383E+14     -0.960750146086E+13     -0.637190237179E+06     -0.188049070477E+07     -0.124739933246E+00      0.422756953657E-01
     1      0.147588795360E+09      0.198900000000E+34      0.279256875994E+14     -0.107848157302E+14     -0.715285652294E+06     -0.185218964582E+07     -0.122861945137E+00      0.474558607402E-01
     1      0.148219515360E+09      0.198900000000E+34      0.274502521635E+14     -0.119432554699E+14     -0.792128630869E+06     -0.182064708174E+07     -0.120768955671E+00      0.525529001149E-01
     1      0.148850235360E+09      0.198900000000E+34      0.269267804739E+14     -0.130807933168E+14     -0.867584703742E+06     -0.178591826090E+07     -0.118464632657E+00      0.575578952421E-01
     1      0.149480955360E+09      0.198900000000E+34      0.263561890327E+14     -0.141954385163E+14     -0.941521831995E+06     -0.174806400651E+07     -0.115953013586E+00      0.624620892644E-01
     1      0.150111675360E+09      0.198900000000E+34      0.257394767946E+14     -0.152852404057E+14     -0.101381063791E+07     -0.170715061002E+07     -0.113238498542E+00      0.672569020265E-01
     1      0.150742395361E+09      0.198900000000E+34      0.250777234172E+14     -0.163482918269E+14     -0.108432463129E+07     -0.166324971490E+07     -0.110325842484E+00      0.719339450761E-01
     1      0.151373115361E+09      0.198900000000E+34      0.243720873694E+14     -0.173827324632E+14     -0.115294043063E+07     -0.161643819109E+07     -0.107220146911E+00      0.764850363282E-01
     1      0.152003835361E+09      0.198900000000E+34      0.236238039027E+14     -0.183867520935E+14     -0.121953797898E+07     -0.156679800035E+07     -0.103926850915E+00      0.809022143670E-01
     1      0.152634555361E+09      0.198900000000E+34      0.228341828878E+14     -0.193585937590E+14     -0.128400075384E+07     -0.151441605261E+07     -0.100451721649E+00      0.851777523611E-01
     1      0.153265275361E+09      0.198900000000E+34      0.220046065206E+14     -0.202965568366E+14     -0.134621597092E+07     -0.145938405380E+07     -0.968008442203E-01      0.893041715670E-01
     1      0.153895995361E+09      0.198900000000E+34      0.211365269020E+14     -0.211990000140E+14     -0.140607478138E+07     -0.140179834517E+07     -0.929806110340E-01      0.932742543979E-01
     1      0.154526715361E+09      0.198900000000E+34      0.202314634956E+14     -0.220643441599E+14     -0.146347246213E+07     -0.134175973463E+07     -0.889977105907E-01      0.970810570347E-01
     1      0.155157435361E+09      0.198900000000E+34      0.192910004669E+14     -0.228910750865E+14     -0.151830859893E+07     -0.127937332018E+07     -0.848591157755E-01      0.100717921557E+00
     1      0.155788155361E+09      0.198900000000E+34      0.183167839106E+14     -0.236777461974E+14     -0.157048726189E+07     -0.121474830595E+07     -0.805720716478E-01      0.104178487576E+00
     1      0.156418875361E+09      0.198900000000E+34      0.173105189683E+14     -0.244229810177E+14     -0.161991717322E+07     -0.114799781095E+07     -0.761440827559E-01      0.107456703341E+00
     1      0.157049595361E+09      0.198900000000E+34      0.162739668438E+14     -0.251254756010E+14     -0.166651186674E+07     -0.107923867109E+07     -0.715829000007E-01      0.110546836312E+00
     1      0.157680315361E+09      0.198900000000E+34      0.152089417206E+14     -0.257840008099E+14     -0.171018983903E+07     -0.100859123464E+07     -0.668965070682E-01      0.113443483166E+00
     1      0.158311035361E+09      0.198900000000E+34      0.141173075859E+14     -0.263974044647E+14     -0.175087469183E+07     -0.936179151617E+06     -0.620931064568E-01      0.116141579238E+00
     1      0.158941755361E+09      0.198900000000E+34      0.130009749682E+14     -0.269646133585E+14     -0.178849526561E+07     -0.862129157302E+06     -0.571811051236E-01      0.118636407360E+00
     1      0.159572475361E+09      0.198900000000E+34      0.118618975940E+14     -0.274846351330E+14     -0.182298576383E+07     -0.786570850501E+06     -0.521690997733E-01      0.120923606094E+00
     1      0.160203195361E+09      0.198900000000E+34      0.107020689679E+14     -0.279565600138E+14     -0.185428586794E+07     -0.709636466715E+06     -0.470658618176E-01      0.122999177347E+00
     1      0.160833915361E+09      0.198900000000E+34      0.952351888378E+13     -0.283795624006E+14     -0.188234084275E+07     -0.631460646749E+06     -0.418803220295E-01      0.124859493345E+00
     1      0.161464635361E+09      0.198900000000E+34      0.832830987323E+13     -0.287529023097E+14     -0.190710163201E+07     -0.552180201111E+06     -0.366215549201E-01      0.126501302967E+00
     1      0.162095355361E+09      0.198900000000E+34      0.711853359563E+13     -0.290759266681E+14     -0.192852494409E+07     -0.471933870627E+06     -0.312987628655E-01      0.127921737411E+00
     1      0.162726075361E+09      0.198900000000E+34      0.589630717812E+13     -0.293480704540E+14     -0.194657332759E+07     -0.390862083695E+06     -0.259212600109E-01      0.129118315201E+00
     1      0.163356795361E+09      0.198900000000E+34      0.466376951094E+13     -0.295688576840E+14     -0.196121523664E+07     -0.309106710591E+06     -0.204984559800E-01      0.130088946507E+00
     1      0.163987515361E+09      0.198900000000E+34      0.342307750473E+13     -0.297379022446E+14     -0.197242508602E+07     -0.226810815262E+06     -0.150398394190E-01      0.130831936795E+00
     1      0.164618235361E+09      0.198900000000E+34      0.217640231647E+13     -0.298549085661E+14     -0.198018329572E+07     -0.144118405046E+06     -0.955496140245E-02      0.131345989768E+00
     1      0.165248955361E+09      0.198900000000E+34      0.925925550520E+12     -0.299196721382E+14     -0.198447632509E+07     -0.611741787390E+05     -0.405341873133E-02      0.131630209628E+00
     1      0.165879675361E+09      0.198900000000E+34     -0.326164558456E+12     -0.299320798667E+14     -0.198529669637E+07      0.218767265246E+05      0.145516284831E-02      0.131684102627E+00
     1      0.166510395361E+09      0.198900000000E+34     -0.157767697416E+13     -0.298921102698E+14     -0.198264300768E+07      0.104888989165E+06      0.696114547669E-02      0.131507577919E+00
     1      0.167141115361E+09      0.198900000000E+34     -0.282642169211E+13     -0.297998335142E+14     -0.197651993528E+07      0.187717357359E+06      0.124548960322E-01      0.131100947712E+00
     1      0.167771835361E+09      0.198900000000E+34     -0.407021357120E+13     -0.296554112911E+14     -0.196693822536E+07      0.270216903112E+06      0.179268029748E-01      0.130464926708E+00
     1      0.168402555361E+09      0.198900000000E+34     -0.530687615669E+13     -0.294590965321E+14     -0.195391467505E+07      0.352243275764E+06      0.233672931504E-01      0.129600630847E+00
     1      0.169033275361E+09      0.198900000000E+34     -0.653424548797E+13     -0.292112329653E+14     -0.193747210299E+07      0.433652954475E+06      0.287668485293E-01      0.128509575348E+00
     1      0.169663995361E+09      0.198900000000E+34     -0.775017388432E+13     -0.289122545126E+14     -0.191763930924E+07      0.514303499256E+06      0.341160228462E-01      0.127193672048E+00
     1      0.170294715361E+09      0.198900000000E+34     -0.895253370220E+13     -0.285626845296E+14     -0.189445102489E+07      0.594053800107E+06      0.394054581160E-01      0.125655226055E+00
     1      0.170925435361E+09      0.198900000000E+34     -0.101392210574E+14     -0.281631348886E+14     -0.186794785116E+07      0.672764323823E+06      0.446259009941E-01      0.123896931711E+00
     1      0.171556155361E+09      0.198900000000E+34     -0.113081595057E+14     -0.277143049073E+14     -0.183817618829E+07      0.750297358039E+06      0.497682189544E-01      0.121921867872E+00
     1      0.172186875361E+09      0.198900000000E+34     -0.124573036749E+14     -0.272169801238E+14     -0.180518815431E+07      0.826517252090E+06      0.548234162557E-01      0.119733492524E+00
     1      0.172817595362E+09      0.198900000000E+34     -0.135846428437E+14     -0.266720309217E+14     -0.176904149379E+07      0.901290654261E+06      0.597826496689E-01      0.117335636725E+00
     1      0.173448315362E+09      0.198900000000E+34     -0.146882044584E+14     -0.260804110060E+14     -0.172979947677E+07      0.974486745014E+06      0.646372439381E-01      0.114732497910E+00
     1      0.174079035362E+09      0.198900000000E+34     -0.157660575837E+14     -0.254431557342E+14     -0.168753078801E+07      0.104597746578E+07      0.693787069475E-01      0.111928632541E+00
     1      0.174709755362E+09      0.198900000000E+34     -0.168163162807E+14     -0.247613803033E+14     -0.164230940677E+07      0.111563774295E+07      0.739987445694E-01      0.108928948142E+00
     1      0.175340475362E+09      0.198900000000E+34     -0.178371429058E+14     -0.240362777984E+14     -0.159421447736E+07      0.118334570658E+07      0.784892751650E-01      0.105738694710E+00
     1      0.175971195362E+09      0.198900000000E+34     -0.188267513251E+14     -0.232691171044E+14     -0.154333017066E+07      0.124898290358E+07      0.828424437152E-01      0.102363455536E+00
     1      0.176601915362E+09      0.198900000000E+34     -0.197834100390E+14     -0.224612406857E+14     -0.148974553680E+07      0.131243450483E+07      0.870506355547E-01      0.988091374408E-01
     1      0.177232635362E+09      0.198900000000E+34     -0.207054452106E+14     -0.216140622361E+14     -0.143355434938E+07      0.137358950608E+07      0.911064896866E-01      0.950819604422E-01
     1      0.177863355362E+09      0.198900000000E+34     -0.215912435943E+14     -0.207290642053E+14     -0.137485494135E+07      0.143234092200E+07      0.950029116535E-01      0.911884468786E-01
     1      0.178494075362E+09      0.198900000000E+34     -0.224392553567E+14     -0.198077952049E+14     -0.131375003302E+07      0.148858597338E+07      0.987330859441E-01      0.871354100025E-01
     1      0.179124795362E+09      0.198900000000E+34     -0.232479967883E+14     -0.188518672981E+14     -0.125034655229E+07      0.154222626682E+07      0.102290487911E+00      0.829299420657E-01
     1      0.179755515362E+09      0.198900000000E+34     -0.240160528985E+14     -0.178629531789E+14     -0.118475544763E+07      0.159316796685E+07      0.105668895181E+00      0.785794019161E-01
     1      0.180386235362E+09      0.198900000000E+34     -0.247420798906E+14     -0.168427832452E+14     -0.111709149389E+07      0.164132196003E+07      0.108862398537E+00      0.740914021295E-01
     1      0.181016955362E+09      0.198900000000E+34     -0.254248075120E+14     -0.157931425711E+14     -0.104747309157E+07      0.168660401083E+07      0.111865412256E+00      0.694737956959E-01
     1      0.181647675362E+09      0.198900000000E+34     -0.260630412764E+14     -0.147158677832E+14     -0.976022059642E+06      0.172893490892E+07      0.114672683875E+00      0.647346622866E-01
     1      0.182278395362E+09      0.198900000000E+34     -0.266556645530E+14     -0.136128438471E+14     -0.902863422449E+06      0.176824060774E+07      0.117279303380E+00      0.598822941239E-01
     1      0.182909115362E+09      0.198900000000E+34     -0.272016405191E+14     -0.124860007691E+14     -0.828125190953E+06      0.180445235401E+07      0.119680711798E+00      0.549251814791E-01
     1      0.183539835362E+09      0.198900000000E+34     -0.277000139739E+14     -0.113373102195E+14     -0.751938138798E+06      0.183750680794E+07      0.121872709169E+00      0.498719978240E-01
     1      0.184170555362E+09      0.198900000000E+34     -0.281499130091E+14     -0.101687820822E+14     -0.674435573518E+06      0.186734615407E+07      0.123851461895E+00      0.447315846609E-01
     1      0.184801275362E+09      0.198900000000E+34     -0.285505505334E+14     -0.898246093871E+13     -0.595753103313E+06      0.189391820233E+07      0.125613509451E+00      0.395129360591E-01
     1      0.185431995362E+09      0.198900000000E+34     -0.289012256494E+14     -0.778042249029E+13     -0.516028399809E+06      0.191717647939E+07      0.127155770436E+00      0.342251829235E-01
     1      0.186062715362E+09      0.198900000000E+34     -0.292013248794E+14     -0.656476992642E+13     -0.435400957195E+06      0.193708030988E+07      0.128475547970E+00      0.288775770239E-01
     1      0.186693435362E+09      0.198900000000E+34     -0.294503232375E+14     -0.533763024481E+13     -0.354011848179E+06      0.195359488757E+07      0.129570534414E+00      0.234794748119E-01
     1      0.187324155362E+09      0.198900000000E+34     -0.296477851484E+14     -0.410115052996E+13     -0.272003477172E+06      0.196669133623E+07      0.130438815407E+00      0.180403210541E-01
     1      0.187954875362E+09      0.198900000000E+34     -0.297933652082E+14     -0.285749419649E+13     -0.189519331152E+06      0.197634676012E+07      0.131078873223E+00      0.125696323107E-01
     1      0.188585595362E+09      0.198900000000E+34     -0.298868087885E+14     -0.160883720394E+13     -0.106703728619E+06      0.198254428408E+07      0.131489589428E+00      0.707698028733E-02
     1      0.189216315362E+09      0.198900000000E+34     -0.299279524813E+14     -0.357364249671E+12     -0.237015671002E+05      0.198527308297E+07      0.131670246839E+00      0.157197509019E-02
     1      0.189847035362E+09      0.198900000000E+34     -0.299167243844E+14      0.894735053596E+12      0.593419303587E+05      0.198452840063E+07      0.131620530785E+00     -0.393575158697E-02
     1      0.190477755362E+09      0.198900000000E+34     -0.298531442264E+14      0.214527000874E+13      0.142281469279E+06      0.198031155819E+07      0.131340529659E+00     -0.943656331405E-02
     1      0.191108475362E+09      0.198900000000E+34     -0.297373233319E+14      0.339205266714E+13      0.224971937961E+06      0.197262995175E+07      0.130830734768E+00     -0.149208357849E-01
     1      0.191739195362E+09      0.198900000000E+34     -0.295694644260E+14      0.463290165677E+13      0.307268661375E+06      0.196149703936E+07      0.130092039480E+00     -0.203789736569E-01
     1      0.192369915362E+09      0.198900000000E+34     -0.293498612791E+14      0.586564599869E+13      0.389027654292E+06      0.194693231755E+07      0.129125737660E+00     -0.258014273407E-01
     1      0.193000635362E+09      0.198900000000E+34     -0.290788981923E+14      0.708812890547E+13      0.470105873218E+06      0.192896128713E+07      0.127933521413E+00     -0.311787097108E-01
     1      0.193631355362E+09      0.198900000000E+34     -0.287570493244E+14      0.829821155467E+13      0.550361466667E+06      0.190761540859E+07      0.126517478126E+00     -0.365014127065E-01
     1      0.194262075362E+09      0.198900000000E+34     -0.283848778620E+14      0.949377683091E+13      0.629654023363E+06      0.188293204700E+07      0.124880086817E+00     -0.417602237961E-01
     1      0.194892795363E+09      0.198900000000E+34     -0.279630350332E+14      0.106727330300E+14      0.707844817921E+06      0.185495440666E+07      0.123024213804E+00     -0.469459422743E-01
     1      0.195523515363E+09      0.198900000000E+34     -0.274922589677E+14      0.118330175184E+14      0.784797053577E+06      0.182373145545E+07      0.120953107687E+00     -0.520494953641E-01
     1      0.196154235363E+09      0.198900000000E+34     -0.269733734049E+14      0.129726003421E+14      0.860376101546E+06      0.178931783912E+07      0.118670393671E+00     -0.570619540954E-01
     1      0.196784955363E+09      0.198900000000E+34     -0.264072862519E+14      0.140894877781E+14      0.934449736592E+06      0.175177378567E+07      0.116180067219E+00     -0.619745489329E-01
     1      0.197415675363E+09      0.198900000000E+34     -0.257949879944E+14      0.151817258224E+14      0.100688836838E+07      0.171116499993E+07      0.113486487067E+00     -0.667786851248E-01
     1      0.198046395363E+09      0.198900000000E+34     -0.251375499631E+14      0.162474036089E+14      0.107756526824E+07      0.166756254855E+07      0.110594367594E+00     -0.714659577463E-01
     1      0.198677115363E+09      0.198900000000E+34     -0.244361224587E+14      0.172846567522E+14      0.114635679091E+07      0.162104273563E+07      0.107508770572E+00     -0.760281664112E-01
     1      0.199307835363E+09      0.198900000000E+34     -0.236919327384E+14      0.182916706093E+14      0.121314259085E+07      0.157168696918E+07      0.104235096311E+00     -0.804573296254E-01
     1      0.199938555363E+09      0.198900000000E+34     -0.229062828684E+14      0.192666834546E+14      0.127780583288E+07      0.151958161861E+07      0.100779074206E+00     -0.847456987582E-01
     1      0.200569275363E+09      0.198900000000E+34     -0.220805474448E+14      0.202079895618E+14      0.134023339656E+07      0.146481786357E+07      0.971467527123E-01     -0.888857716057E-01
     1      0.201199995363E+09      0.198900000000E+34     -0.212161711878E+14      0.211139421877E+14      0.140031607412E+07      0.140749153438E+07      0.933444887531E-01     -0.928703055228E-01
     1      0.201830715363E+09      0.198900000000E+34     -0.203146664136E+14      0.219829564536E+14      0.145794876156E+07      0.134770294427E+07      0.893789365980E-01     -0.966923301015E-01
     1      0.202461435363E+09      0.198900000000E+34     -0.193776103877E+14      0.228135121172E+14      0.151303064256E+07      0.128555671383E+07      0.852570362126E-01     -0.100345159372E+00
     1      0.203092155363E+09      0.198900000000E+34     -0.184066425643E+14      0.236041562323E+14      0.156546536481E+07      0.122116158788E+07      0.809860011099E-01     -0.103822403507E+00
     1      0.203722875363E+09      0.198900000000E+34     -0.174034617174E+14      0.243535056906E+14      0.161516120865E+07      0.115463024513E+07      0.765733057228E-01     -0.107117980006E+00
     1      0.204353595363E+09      0.198900000000E+34     -0.163698229678E+14      0.250602496407E+14      0.166203124751E+07      0.108607910096E+07      0.720266723182E-01     -0.110226124340E+00
     1      0.204984315363E+09      0.198900000000E+34     -0.153075347117E+14      0.257231517811E+14      0.170599349998E+07      0.101562810369E+07      0.673540574777E-01     -0.113141400046E+00
     1      0.205615035363E+09      0.198900000000E+34     -0.142184554561E+14      0.263410525229E+14      0.174697107325E+07      0.943400524559E+06      0.625636381677E-01     -0.115858708239E+00
     1      0.206245755363E+09      0.198900000000E+34     -0.131044905662E+14      0.269128710177E+14      0.178489229757E+07      0.869522742053E+06      0.576637974222E-01     -0.118373296537E+00
     1      0.206876475363E+09      0.198900000000E+34     -0.119675889313E+14      0.274376070477E+14      0.181969085167E+07      0.794124020638E+06      0.526631096664E-01     -0.120680767377E+00
     1      0.207507195363E+09      0.198900000000E+34     -0.108097395542E+14      0.279143427755E+14      0.185130587873E+07      0.717336284541E+06      0.475703257028E-01     -0.122777085711E+00
     1      0.208137915363E+09      0.198900000000E+34     -0.963296807089E+13      0.283422443486E+14      0.187968209280E+07      0.639293886834E+06      0.423943573903E-01     -0.124658586067E+00
     1      0.208768635363E+09      0.198900000000E+34     -0.843933320551E+13      0.287205633577E+14      0.190476987551E+07      0.560133374285E+06      0.371442620395E-01     -0.126321978962E+00
     1      0.209399355363E+09      0.198900000000E+34     -0.723092316812E+13      0.290486381449E+14      0.192652536281E+07      0.479993248365E+06      0.318292265544E-01     -0.127764356652E+00
     1      0.210030075363E+09      0.198900000000E+34     -0.600985200052E+13      0.293258949606E+14      0.194491052160E+07      0.399013722834E+06      0.264585513466E-01     -0.128983198222E+00
     1      0.210660795363E+09      0.198900000000E+34     -0.477825587706E+13      0.295518489661E+14      0.195989321630E+07      0.317336478343E+06      0.210416340510E-01     -0.129976373992E+00
     1      0.211291515363E+09      0.198900000000E+34     -0.353828936676E+13      0.297261050810E+14      0.197144726489E+07      0.235104414460E+06      0.155879530710E-01     -0.130742149235E+00
     1      0.211922235363E+09      0.198900000000E+34     -0.229212166327E+13      0.298483586728E+14      0.197955248469E+07      0.152461399574E+06      0.101070509833E-01     -0.131279187213E+00
     1      0.212552955363E+09      0.198900000000E+34     -0.104193278933E+13      0.299183960892E+14      0.198419472755E+07      0.695520191073E+05      0.460851782948E-02     -0.131586551501E+00
     1      0.213183675363E+09      0.198900000000E+34      0.210090217634E+12      0.299360950303E+14      0.198536590451E+07     -0.134786775264E+05     -0.898025674406E-03     -0.131663707627E+00
     1      0.213814395363E+09      0.198900000000E+34      0.146175713217E+13      0.299014247612E+14      0.198306399982E+07     -0.964854307660E+05     -0.640294498179E-02     -0.131510523989E+00
     1      0.214445115363E+09      0.198900000000E+34      0.271087837294E+13      0.298144461649E+14      0.197729307438E+07     -0.179323025111E+06     -0.118966085834E-01     -0.131127272082E+00
     1      0.215075835363E+09      0.198900000000E+34      0.395526883360E+13      0.296753116338E+14      0.196806325848E+07     -0.261846543245E+06     -0.173694048692E-01     -0.130514626009E+00
     1      0.215706555363E+09      0.198900000000E+34      0.519275170591E+13      0.294842648021E+14      0.195539073395E+07     -0.343911619631E+06     -0.228117589547E-01     -0.129673661292E+00
     1      0.216337275363E+09      0.198900000000E+34      0.642116228805E+13      0.292416401180E+14      0.193929770571E+07     -0.425374693133E+06     -0.282141494428E-01     -0.128605852974E+00
     1      0.216967995364E+09      0.198900000000E+34      0.763835177186E+13      0.289478622566E+14      0.191981236277E+07     -0.506093258224E+06     -0.335671250903E-01     -0.127313073027E+00
     1      0.217598715364E+09      0.198900000000E+34      0.884219100201E+13      0.286034453764E+14      0.189696882878E+07     -0.585926114330E+06     -0.388613213521E-01     -0.125797587062E+00
     1      0.218229435364E+09      0.198900000000E+34      0.100305742008E+14      0.282089922172E+14      0.187080710216E+07     -0.664733612894E+06     -0.440874767714E-01     -0.124062050348E+00
     1      0.218860155364E+09      0.198900000000E+34      0.112014226519E+14      0.277651930446E+14      0.184137298594E+07     -0.742377901706E+06     -0.492364491895E-01     -0.122109503151E+00
     1      0.219490875364E+09      0.198900000000E+34      0.123526883367E+14      0.272728244408E+14      0.180871800750E+07     -0.818723166080E+06     -0.542992317453E-01     -0.119943365398E+00
     1      0.220121595364E+09      0.198900000000E+34      0.134823575169E+14      0.267327479442E+14      0.177289932823E+07     -0.893635866456E+06     -0.592669686370E-01     -0.117567430678E+00
     1      0.220752315364E+09      0.198900000000E+34      0.145884542566E+14      0.261459085408E+14      0.173397964335E+07     -0.966984972015E+06     -0.641309706181E-01     -0.114985859580E+00
     1      0.221383035364E+09      0.198900000000E+34      0.156690438788E+14      0.255133330090E+14      0.169202707209E+07     -0.103864218989E+07     -0.688827302012E-01     -0.112203172404E+00
     1      0.222013755364E+09      0.198900000000E+34      0.167222363494E+14      0.248361281223E+14      0.164711503827E+07     -0.110848218955E+07     -0.735139365418E-01     -0.109224241228E+00
     1      0.222644475364E+09      0.198900000000E+34      0.177461895825E+14      0.241154787111E+14      0.159932214176E+07     -0.117638282208E+07     -0.780164899772E-01     -0.106054281363E+00
     1      0.223275195364E+09      0.198900000000E+34      0.187391126621E+14      0.233526455885E+14      0.154873202071E+07     -0.124222533372E+07     -0.823825161944E-01     -0.102698842218E+00
     1      0.223905915364E+09      0.198900000000E+34      0.196992689747E+14      0.225489633430E+14      0.149543320515E+07     -0.130589457363E+07     -0.866043800020E-01     -0.991637975602E-01
     1      0.224536635364E+09      0.198900000000E+34      0.206249792455E+14      0.217058380023E+14      0.143951896183E+07     -0.136727919521E+07     -0.906746986830E-01     -0.954553352294E-01
     1      0.225167355364E+09      0.198900000000E+34      0.215146244754E+14      0.208247445724E+14      0.138108713098E+07     -0.142627185082E+07     -0.945863549034E-01     -0.915799462864E-01
     1      0.225798075364E+09      0.198900000000E+34      0.223666487720E+14      0.199072244555E+14      0.132023995495E+07     -0.148276937947E+07     -0.983325091561E-01     -0.875444136407E-01
     1      0.226428795364E+09      0.198900000000E+34      0.231795620698E+14      0.189548827522E+14      0.125708389916E+07     -0.153667298715E+07     -0.101906611717E+00     -0.833558001645E-01
     1      0.227059515364E+09      0.198900000000E+34      0.239519427354E+14      0.179693854527E+14      0.119172946571E+07     -0.158788841958E+07     -0.105302414091E+00     -0.790214363179E-01
     1      0.227690235364E+09      0.198900000000E+34      0.246824400533E+14      0.169524565206E+14      0.112429099993E+07     -0.163632612691E+07     -0.108513979934E+00     -0.745489073070E-01
     1      0.228320955364E+09      0.198900000000E+34      0.253697765865E+14      0.159058748763E+14      0.105488649019E+07     -0.168190142026E+07     -0.111535695423E+00     -0.699460397967E-01
     1      0.228951675364E+09      0.198900000000E+34      0.260127504104E+14      0.148314712837E+14      0.983637361374E+06     -0.172453461969E+07     -0.114362279061E+00     -0.652208882020E-01
     1      0.229582395364E+09      0.198900000000E+34      0.266102372123E+14      0.137311251472E+14      0.910668262294E+06     -0.176415119345E+07     -0.116988790902E+00     -0.603817205819E-01
     1      0.230213115364E+09      0.198900000000E+34      0.271611922578E+14      0.126067612223E+14      0.836106847568E+06     -0.180068188815E+07     -0.119410641177E+00     -0.554370041604E-01
     1      0.230843835364E+09      0.198900000000E+34      0.276646522150E+14      0.114603462485E+14      0.760083554169E+06     -0.183406284975E+07     -0.121623598301E+00     -0.503953905005E-01
     1      0.231474555364E+09      0.198900000000E+34      0.281197368389E+14      0.102938855077E+14      0.682731373159E+06     -0.186423573507E+07     -0.123623796262E+00     -0.452657003563E-01
     1      0.232105275364E+09      0.198900000000E+34      0.285256505085E+14      0.910941931609E+13      0.604185616957E+06     -0.189114781361E+07     -0.125407741358E+00     -0.400569082314E-01
     1      0.232735995364E+09      0.198900000000E+34      0.288816836165E+14      0.790901945445E+13      0.524583682555E+06     -0.191475205964E+07     -0.126972318292E+00     -0.347781266687E-01
     1      0.233366715364E+09      0.198900000000E+34      0.291872138088E+14      0.669478554368E+13      0.444064811110E+06     -0.193500723418E+07     -0.128314795598E+00     -0.294385903008E-01
     1      0.233997435364E+09      0.198900000000E+34      0.294417070708E+14      0.546884137170E+13      0.362769844320E+06     -0.195187795701E+07     -0.129432830396E+00     -0.240476396880E-01
     1      0.234628155364E+09      0.198900000000E+34      0.296447186595E+14      0.423333117835E+13      0.280840978010E+06     -0.196533476825E+07     -0.130324472471E+00     -0.186147049727E-01
     1      0.235258875364E+09      0.198900000000E+34      0.297958938791E+14      0.299041590453E+13      0.198421513368E+06     -0.197535417972E+07     -0.130988167655E+00     -0.131492893788E-01
     1      0.235889595364E+09      0.198900000000E+34      0.298949686995E+14      0.174226941229E+13      0.115655606267E+06     -0.198191871580E+07     -0.131422760526E+00     -0.766095258437E-02
     1      0.236520315364E+09      0.198900000000E+34      0.299417702155E+14      0.491074682514E+12      0.326880150973E+05     -0.198501694372E+07     -0.131627496405E+00     -0.215929399786E-02
     1      0.237151035364E+09      0.198900000000E+34      0.299362169475E+14     -0.760980003263E+12     -0.503361524313E+05     -0.198464349339E+07     -0.131602022651E+00      0.334606403387E-02
     1      0.237781755364E+09      0.198900000000E+34      0.298783189819E+14     -0.201170489012E+13     -0.133271693089E+06     -0.198079906653E+07     -0.131346389252E+00      0.884549305584E-02
     1      0.238412475364E+09      0.198900000000E+34      0.297681779507E+14     -0.325891257946E+13     -0.215973562075E+06     -0.197349043522E+07     -0.130861048714E+00      0.143293753443E-01
     1      0.239043195365E+09      0.198900000000E+34      0.296059868523E+14     -0.450042185450E+13     -0.298297126671E+06     -0.196273042982E+07     -0.130146855248E+00      0.197881207256E-01
     1      0.239673915365E+09      0.198900000000E+34      0.293920297114E+14     -0.573406149471E+13     -0.380098419164E+06     -0.194853791634E+07     -0.129205063249E+00      0.252121833450E-01
     1      0.240304635365E+09      0.198900000000E+34      0.291266810801E+14     -0.695767407273E+13     -0.461234388588E+06     -0.193093776318E+07     -0.128037325079E+00      0.305920783567E-01
     1      0.240935355365E+09      0.198900000000E+34      0.288104053812E+14     -0.816911972697E+13     -0.541563150850E+06     -0.190996079742E+07     -0.126645688154E+00      0.359183985054E-01
     1      0.241566075365E+09      0.198900000000E+34      0.284437560933E+14     -0.936627990334E+13     -0.620944236794E+06     -0.188564375072E+07     -0.125032591343E+00      0.411818305700E-01
     1      0.242196795365E+09      0.198900000000E+34      0.280273747814E+14     -0.105470610596E+14     -0.699238837787E+06     -0.185802919487E+07     -0.123200860676E+00      0.463731716422E-01
     1      0.242827515365E+09      0.198900000000E+34      0.275619899725E+14     -0.117093983260E+14     -0.776310048379E+06     -0.182716546708E+07     -0.121153704383E+00      0.514833452105E-01
     1      0.243458235365E+09      0.198900000000E+34      0.270484158799E+14     -0.128512591150E+14     -0.852023105621E+06     -0.179310658533E+07     -0.118894707263E+00      0.565034170206E-01
     1      0.244088955365E+09      0.198900000000E+34      0.264875509771E+14     -0.139706466757E+14     -0.926245624633E+06     -0.175591215361E+07     -0.116427824394E+00      0.614246106874E-01
     1      0.244719675365E+09      0.198900000000E+34      0.258803764251E+14     -0.150656035837E+14     -0.998847829985E+06     -0.171564725762E+07     -0.113757374198E+00      0.662383230284E-01
     1      0.245350395365E+09      0.198900000000E+34      0.252279543547E+14     -0.161342151641E+14     -0.106970278252E+07     -0.167238235065E+07     -0.110888030871E+00      0.709361390933E-01
     1      0.245981115365E+09      0.198900000000E+34      0.245314260071E+14     -0.171746128377E+14     -0.113868660120E+07     -0.162619313031E+07     -0.107824816194E+00      0.755098468632E-01
     1      0.246611835365E+09      0.198900000000E+34      0.237920097371E+14     -0.181849773878E+14     -0.120567867958E+07     -0.157716040592E+07     -0.104573090730E+00      0.799514515943E-01
     1      0.247242555365E+09      0.198900000000E+34      0.230109988806E+14     -0.191635421401E+14     -0.127056189657E+07     -0.152536995712E+07     -0.101138544446E+00      0.842531897804E-01
     1      0.247873275365E+09      0.198900000000E+34      0.221897594915E+14     -0.201085960507E+14     -0.133322282108E+07     -0.147091238365E+07     -0.975271867373E-01      0.884075427099E-01
     1      0.248503995365E+09      0.198900000000E+34      0.213297279519E+14     -0.210184866965E+14     -0.139355191021E+07     -0.141388294686E+07     -0.937453359187E-01      0.924072495947E-01
     1      0.249134715365E+09      0.198900000000E+34      0.204324084586E+14     -0.218916231636E+14     -0.145144370061E+07     -0.135438140297E+07     -0.897996081583E-01      0.962453202466E-01
     1      0.249765435365E+09      0.198900000000E+34      0.194993703918E+14     -0.227264788275E+14     -0.150679699275E+07     -0.129251182855E+07     -0.856969059019E-01      0.999150472808E-01
     1      0.250396155365E+09      0.198900000000E+34      0.185322455696E+14     -0.235215940208E+14     -0.155951502770E+07     -0.122838243841E+07     -0.814444057951E-01      0.103410017824E+00
     1      0.251026875365E+09      0.198900000000E+34      0.175327253938E+14     -0.242755785844E+14     -0.160950565609E+07     -0.116210539632E+07     -0.770495461282E-01      0.106724124707E+00
     1      0.251657595365E+09      0.198900000000E+34      0.165025578911E+14     -0.249871142964E+14     -0.165668149914E+07     -0.109379661878E+07     -0.725200138243E-01      0.109851577123E+00
     1      0.252288315365E+09      0.198900000000E+34      0.154435446556E+14     -0.256549571756E+14     -0.170096010117E+07     -0.102357557227E+07     -0.678637309953E-01      0.112786910732E+00
     1      0.252919035365E+09      0.198900000000E+34      0.143575376984E+14     -0.262779396550E+14     -0.174226407366E+07     -0.951565064349E+06     -0.630888410872E-01      0.115524997198E+00
     1      0.253549755365E+09      0.198900000000E+34      0.132464362077E+14     -0.268549726215E+14     -0.178052123038E+07     -0.877891028815E+06     -0.582036946404E-01      0.118061053130E+00
     1      0.254180475365E+09      0.198900000000E+34      0.121121832283E+14     -0.273850473187E+14     -0.181566471335E+07     -0.802682305524E+06     -0.532168346888E-01      0.120390648429E+00
     1      0.254811195365E+09      0.198900000000E+34      0.109567622631E+14     -0.278672371090E+14     -0.184763310967E+07     -0.726070415077E+06     -0.481369818244E-01      0.122509714017E+00
     1      0.255441915365E+09      0.198900000000E+34      0.978219380463E+13     -0.283006990922E+14     -0.187637055863E+07     -0.648189328853E+06     -0.429730189527E-01      0.124414548925E+00
     1      0.256072635365E+09      0.198900000000E+34      0.859053180195E+13     -0.286846755777E+14     -0.190182684924E+07     -0.569175234759E+06     -0.377339757645E-01      0.126101826753E+00
     1      0.256703355365E+09      0.198900000000E+34      0.738386006915E+13     -0.290184954074E+14     -0.192395750785E+07     -0.489166299128E+06     -0.324290129544E-01      0.127568601464E+00
     1      0.257334075365E+09      0.198900000000E+34      0.616428864169E+13     -0.293015751278E+14     -0.194272387573E+07     -0.408302425159E+06     -0.270674062091E-01      0.128812312520E+00
     1      0.257964795365E+09      0.198900000000E+34      0.493395008697E+13     -0.295334200084E+14     -0.195809317652E+07     -0.326725008337E+06     -0.216585299975E-01      0.129830789338E+00
     1      0.258595515365E+09      0.198900000000E+34      0.369499577570E+13     -0.297136249051E+14     -0.197003857334E+07     -0.244576689246E+06     -0.162118411884E-01      0.130622255075E+00
     1      0.259226235365E+09      0.198900000000E+34      0.244959212046E+13     -0.298418749673E+14     -0.197853921559E+07     -0.162001104227E+06     -0.107368625252E-01      0.131185329717E+00
     1      0.259856955365E+09      0.198900000000E+34      0.119991678797E+13     -0.299179461865E+14     -0.198358027527E+07     -0.791426342919E+05     -0.524316598617E-02      0.131519032478E+00
     1      0.260487675365E+09      0.198900000000E+34     -0.518451080481E+11     -0.299417057867E+14     -0.198515297271E+07      0.385384724789E+04      0.259643940477E-03      0.131622783502E+00
     1      0.261118395366E+09      0.198900000000E+34     -0.130350482715E+13     -0.299131124550E+14     -0.198325459186E+07      0.868432280110E+05      0.576194703744E-02      0.131496404865E+00
     1      0.261749115366E+09      0.198900000000E+34     -0.255287382854E+13     -0.298322164128E+14     -0.197788848486E+07      0.169680410184E+06      0.112541241664E-01      0.131140120878E+00
     1      0.262379835366E+09      0.198900000000E+34     -0.379776759712E+13     -0.296991593260E+14     -0.196906406607E+07      0.252220564126E+06      0.167265740737E-01      0.130554557681E+00
     1      0.263010555366E+09      0.198900000000E+34     -0.503600946235E+13     -0.295141740567E+14     -0.195679679553E+07      0.334319381504E+06      0.221697301637E-01      0.129740742143E+00
     1      0.263641275366E+09      0.198900000000E+34     -0.626543440344E+13     -0.292775842544E+14     -0.194110815178E+07      0.415833327508E+06      0.275740772126E-01      0.128700100057E+00
     1      0.264271995366E+09      0.198900000000E+34     -0.748389283395E+13     -0.289898037892E+14     -0.192202559426E+07      0.496619891704E+06      0.329301679905E-01      0.127434453644E+00
     1      0.264902715366E+09      0.198900000000E+34     -0.868925435952E+13     -0.286513360272E+14     -0.189958251521E+07      0.576537837108E+06      0.382286397657E-01      0.125946018357E+00
     1      0.265533435366E+09      0.198900000000E+34     -0.987941150185E+13     -0.282627729488E+14     -0.187381818116E+07      0.655447447013E+06      0.434602306610E-01      0.124237399011E+00
     1      0.266164155366E+09      0.198900000000E+34     -0.110522833827E+14     -0.278247941134E+14     -0.184477766427E+07      0.733210769167E+06      0.486157958333E-01      0.122311585217E+00
     1      0.266794875366E+09      0.198900000000E+34     -0.122058193611E+14     -0.273381654701E+14     -0.181251176345E+07      0.809691856862E+06      0.536863234488E-01      0.120171946162E+00
     1      0.267425595366E+09      0.198900000000E+34     -0.133380026183E+14     -0.268037380175E+14     -0.177707691548E+07      0.884757006514E+06      0.586629504267E-01      0.117822224710E+00
     1      0.268056315366E+09      0.198900000000E+34     -0.144468536823E+14     -0.262224463153E+14     -0.173853509629E+07      0.958274991322E+06      0.635369779219E-01      0.115266530864E+00
     1      0.268687035366E+09      0.198900000000E+34     -0.155304338886E+14     -0.255953068496E+14     -0.169695371260E+07      0.103011729060E+07      0.682998865220E-01      0.112509334578E+00
     1      0.269317755366E+09      0.198900000000E+34     -0.165868487685E+14     -0.249234162547E+14     -0.165240548401E+07      0.110015831436E+07      0.729433511301E-01      0.109555457946E+00
     1      0.269948475366E+09      0.198900000000E+34     -0.176142513605E+14     -0.242079493959E+14     -0.160496831583E+07      0.116827562283E+07      0.774592555094E-01      0.106410066772E+00
     1      0.270579195366E+09      0.198900000000E+34     -0.186108454384E+14     -0.234501573139E+14     -0.155472516291E+07      0.123435014038E+07      0.818397064624E-01      0.103078661544E+00
     1      0.271209915366E+09      0.198900000000E+34     -0.195748886512E+14     -0.226513650380E+14     -0.150176388453E+07      0.129826636361E+07      0.860770476210E-01      0.995670678199E-01
     1      0.271840635366E+09      0.198900000000E+34     -0.205046955682E+14     -0.218129692685E+14     -0.144617709083E+07      0.135991256327E+07      0.901638728237E-01      0.958814260483E-01
     1      0.272471355366E+09      0.198900000000E+34     -0.213986406249E+14     -0.209364359345E+14     -0.138806198091E+07      0.141918097942E+07      0.940930390552E-01      0.920281808379E-01
     1      0.273102075366E+09      0.198900000000E+34     -0.222551609644E+14     -0.200232976305E+14     -0.132752017285E+07      0.147596800980E+07      0.978576789275E-01      0.880140696958E-01
     1      0.273732795366E+09      0.198900000000E+34     -0.230727591685E+14     -0.190751509370E+14     -0.126465752609E+07      0.153017439090E+07      0.101451212679E+00      0.838461112550E-01
     1      0.274363515366E+09      0.198900000000E+34     -0.238500058755E+14     -0.180936536286E+14     -0.119958395638E+07      0.158170537137E+07      0.104867359674E+00      0.795315930092E-01
     1      0.274994235366E+09      0.198900000000E+34     -0.245855422777E+14     -0.170805217754E+14     -0.113241324360E+07      0.163047087766E+07      0.108100149374E+00      0.750780585792E-01
     1      0.275624955366E+09      0.198900000000E+34     -0.252780824966E+14     -0.160375267427E+14     -0.106326283286E+07      0.167638567141E+07      0.111143931777E+00      0.704932945310E-01
     1      0.276255675366E+09      0.198900000000E+34     -0.259264158305E+14     -0.149664920940E+14     -0.992253629217E+06      0.171936949843E+07      0.113993387288E+00      0.657853167692E-01
     1      0.276886395366E+09      0.198900000000E+34     -0.265294088698E+14     -0.138692904026E+14     -0.919509786284E+06      0.175934722891E+07      0.116643536018E+00      0.609623565294E-01
     1      0.277517115366E+09      0.198900000000E+34     -0.270860074783E+14     -0.127478399778E+14     -0.845158489220E+06      0.179624898878E+07      0.119089746488E+00      0.560328459947E-01
     1      0.278147835366E+09      0.198900000000E+34     -0.275952386355E+14     -0.116041015107E+14     -0.769329732386E+06      0.183001028177E+07      0.121327743726E+00      0.510054035597E-01
     1      0.278778555366E+09      0.198900000000E+34     -0.280562121366E+14     -0.104400746468E+14     -0.692156092103E+06      0.186057210217E+07      0.123353616741E+00      0.458888187696E-01
     1      0.279409275366E+09      0.198900000000E+34     -0.284681221484E+14     -0.925779448960E+13     -0.613772494889E+06      0.188788103792E+07      0.125163825358E+00      0.406920369594E-01
     1      0.280039995366E+09      0.198900000000E+34     -0.288302486177E+14     -0.805932804274E+13     -0.534315981600E+06      0.191188936398E+07      0.126755206410E+00      0.354241436203E-01
     1      0.280670715366E+09      0.198900000000E+34     -0.291419585292E+14     -0.684677059628E+13     -0.453925467858E+06      0.193255512571E+07      0.128124979271E+00      0.300943485209E-01
     1      0.281301435366E+09      0.198900000000E+34     -0.294027070117E+14     -0.562224206355E+13     -0.372741501209E+06      0.194984221221E+07      0.129270750716E+00      0.247119696105E-01
     1      0.281932155366E+09      0.198900000000E+34     -0.296120382900E+14     -0.438788327490E+13     -0.290906015426E+06      0.196372041942E+07      0.130190519112E+00      0.192864167328E-01
     1      0.282562875366E+09      0.198900000000E+34     -0.297695864814E+14     -0.314585223505E+13     -0.208562082385E+06      0.197416550293E+07      0.130882677915E+00      0.138271751784E-01
     1      0.283193595367E+09      0.198900000000E+34     -0.298750762344E+14     -0.189832035025E+13     -0.125853661951E+06      0.198115922027E+07      0.131346018486E+00      0.834378910470E-02
     1      0.283824315367E+09      0.198900000000E+34     -0.299283232097E+14     -0.647468632118E+12     -0.429253503059E+05      0.198468936290E+07      0.131579732207E+00      0.284584485253E-02
     1      0.284455035367E+09      0.198900000000E+34     -0.299292344020E+14      0.604516115283E+12      0.400778728329E+05      0.198474977742E+07      0.131583411896E+00     -0.265704581187E-02
     1      0.285085755367E+09      0.198900000000E+34     -0.298778083020E+14      0.185544511855E+13      0.123010897672E+06      0.198134037640E+07      0.131357052526E+00     -0.815526249989E-02
     1      0.285716475367E+09      0.198900000000E+34     -0.297741348982E+14      0.310313146144E+13      0.205728738028E+06      0.197446713846E+07      0.130901051233E+00     -0.136391930193E-01
     1      0.286347195367E+09      0.198900000000E+34     -0.296183955193E+14      0.434539390813E+13      0.288086784800E+06      0.196414209783E+07      0.130216206632E+00     -0.190992501792E-01
     1      0.286977915367E+09      0.198900000000E+34     -0.294108625167E+14      0.558006071649E+13      0.369941058790E+06      0.195038332330E+07      0.129303717419E+00     -0.245258885524E-01
     1      0.287608635367E+09      0.198900000000E+34     -0.291518987876E+14      0.680497343483E+13      0.451148462416E+06      0.193321488659E+07      0.128165180282E+00     -0.299096211647E-01
     1      0.288239355367E+09      0.198900000000E+34     -0.288419571401E+14      0.801799067534E+13      0.531567029891E+06      0.191266682026E+07      0.126802587111E+00     -0.352410360834E-01
     1      0.288870075367E+09      0.198900000000E+34     -0.284815795008E+14      0.921699185767E+13      0.611056175430E+06      0.188877506519E+07      0.125218321520E+00     -0.405108128743E-01
     1      0.289500795367E+09      0.198900000000E+34     -0.280713959671E+14      0.103998809162E+14      0.689476939033E+06      0.186158140771E+07      0.123415154683E+00     -0.457097389001E-01
     1      0.290131515367E+09      0.198900000000E+34     -0.276121237050E+14      0.115645899644E+14      0.766692229444E+06      0.183113340654E+07      0.121396240488E+00     -0.508287254308E-01
     1      0.290762235367E+09      0.198900000000E+34     -0.271045656944E+14      0.127090829097E+14      0.842567063828E+06      0.179748430960E+07      0.119165110031E+00     -0.558588235371E-01
     1      0.291392955367E+09      0.198900000000E+34     -0.265496093251E+14      0.138313590133E+14      0.916968803776E+06      0.176069296091E+07      0.116725665438E+00     -0.607912397410E-01
     1      0.292023675367E+09      0.198900000000E+34     -0.259482248444E+14      0.149294563876E+14      0.989767387201E+06      0.172082369764E+07      0.114082173045E+00     -0.656173513941E-01
     1      0.292654395367E+09      0.198900000000E+34     -0.253014636608E+14      0.160014554258E+14      0.106083555574E+07      0.167794623766E+07      0.111239255943E+00     -0.703287217580E-01
     1      0.293285115367E+09      0.198900000000E+34     -0.246104565044E+14      0.170454821578E+14      0.113004907725E+07      0.163213555753E+07      0.108201885890E+00     -0.749171147596E-01
     1      0.293915835367E+09      0.198900000000E+34     -0.238764114503E+14      0.180597115261E+14      0.119728696299E+07      0.158347176146E+07      0.104975374621E+00     -0.793745093963E-01
     1      0.294546555367E+09      0.198900000000E+34     -0.231006118056E+14      0.190423705762E+14      0.126243167921E+07      0.153203994117E+07      0.101565364555E+00     -0.836931137648E-01
     1      0.295177275367E+09      0.198900000000E+34     -0.222844138648E+14      0.199917415559E+14      0.132536935258E+07      0.147793002707E+07      0.979778189350E-01     -0.878653786895E-01
     1      0.295807995367E+09      0.198900000000E+34     -0.214292445386E+14      0.209061649181E+14      0.138598996929E+07      0.142123663104E+07      0.942190113915E-01     -0.918840109265E-01
     1      0.296438715367E+09      0.198900000000E+34     -0.205365988583E+14      0.217840422212E+14      0.144418756744E+07      0.136205888087E+07      0.902955149744E-01     -0.957419859202E-01
     1      0.297069435367E+09      0.198900000000E+34     -0.196080373616E+14      0.226238389242E+14      0.149986042223E+07      0.130050024698E+07      0.862141906549E-01     -0.994325600898E-01
     1      0.297700155367E+09      0.198900000000E+34     -0.186451833635E+14      0.234240870680E+14      0.155291122382E+07      0.123666836142E+07      0.819821753245E-01     -0.102949282625E+00
     1      0.298330875367E+09      0.198900000000E+34     -0.176497201178E+14      0.241833878419E+14      0.160324724748E+07      0.117067482963E+07      0.776068693117E-01     -0.106286006766E+00
     1      0.298961595367E+09      0.198900000000E+34     -0.166233878734E+14      0.249004140281E+14      0.165078051564E+07      0.110263503526E+07      0.730959234361E-01     -0.109436900560E+00
     1      0.299592315367E+09      0.198900000000E+34     -0.155679808320E+14      0.255739123219E+14      0.169542795172E+07      0.103266793839E+07      0.684572256251E-01     -0.112396457055E+00
     1      0.300223035367E+09      0.198900000000E+34     -0.144853440096E+14      0.262027055218E+14      0.173711152533E+07      0.960895867413E+06      0.636988871146E-01     -0.115159503935E+00
     1      0.300853755367E+09      0.198900000000E+34     -0.133773700112E+14      0.267856945869E+14      0.177575838867E+07      0.887444305178E+06      0.588292282588E-01     -0.117721212563E+00
     1      0.301484475367E+09      0.198900000000E+34     -0.122459957212E+14      0.273218605577E+14      0.181130100385E+07      0.812441669470E+06      0.538567639745E-01     -0.120077106427E+00
     1      0.302115195367E+09      0.198900000000E+34     -0.110931989164E+14      0.278102663365E+14      0.184367726095E+07      0.736019088440E+06      0.487901888436E-01     -0.122223068966E+00
     1      0.302745915367E+09      0.198900000000E+34     -0.992099480786E+13      0.282500583250E+14      0.187283058652E+07      0.658310171274E+06      0.436383619026E-01     -0.124155350769E+00
     1      0.303376635367E+09      0.198900000000E+34     -0.873143251746E+13      0.286404679157E+14      0.189871004245E+07      0.579450774519E+06      0.384102911424E-01     -0.125870576127E+00
     1      0.304007355367E+09      0.198900000000E+34     -0.752659149476E+13      0.289808128345E+14      0.192127041500E+07      0.499578764490E+06      0.331151177492E-01     -0.127365748938E+00
     1      0.304638075367E+09      0.198900000000E+34     -0.630857788123E+13      0.292704983328E+14      0.194047229371E+07      0.418833776162E+06      0.277621001109E-01     -0.128638257936E+00
     1      0.305268795368E+09      0.198900000000E+34     -0.507952082773E+13      0.295090182257E+14      0.195628214029E+07      0.337356968965E+06      0.223605976195E-01     -0.129685881259E+00
     1      0.305899515368E+09      0.198900000000E+34     -0.384156877183E+13      0.296959557763E+14      0.196867234712E+07      0.255290779927E+06      0.169200542962E-01     -0.130506790327E+00
     1      0.306530235368E+09      0.198900000000E+34     -0.259688568148E+13      0.298309844229E+14      0.197762128549E+07      0.172778674577E+06      0.114499822686E-01     -0.131099553031E+00
     1      0.307160955368E+09      0.198900000000E+34     -0.134764727155E+13      0.299138683487E+14      0.198311334324E+07      0.899648960612E+05      0.595994512986E-02     -0.131463136236E+00
     1      0.307791675368E+09      0.198900000000E+34     -0.960371999733E+11      0.299444628927E+14      0.198513895201E+07      0.699421289662E+04      0.459541206775E-03     -0.131596907573E+00
     1      0.308422395368E+09      0.198900000000E+34      0.115575675005E+13      0.299227148017E+14      0.198369460383E+07     -0.759883341817E+05     -0.504161323150E-02     -0.131500636542E+00
     1      0.309053115368E+09      0.198900000000E+34      0.240554649486E+13      0.298486623215E+14      0.197878285714E+07     -0.158837685849E+06     -0.105339007962E-01     -0.131174494901E+00
     1      0.309683835368E+09      0.198900000000E+34      0.365114747569E+13      0.297224351291E+14      0.197041233220E+07     -0.241409017840E+06     -0.160077198028E-01     -0.130619056357E+00
     1      0.310314555368E+09      0.198900000000E+34      0.489038247772E+13      0.295442541044E+14      0.195859769587E+07     -0.323557994188E+06     -0.214535010675E-01     -0.129835295553E+00
     1      0.310945275368E+09      0.198900000000E+34      0.612108543621E+13      0.293144309426E+14      0.194335963586E+07     -0.405141019595E+06     -0.268617246451E-01     -0.128824586346E+00
     1      0.311575995368E+09      0.198900000000E+34      0.734110522312E+13      0.290333676081E+14      0.192472482439E+07     -0.486015490498E+06     -0.322229364810E-01     -0.127588699399E+00
     1      0.312206715368E+09      0.198900000000E+34      0.854830940741E+13      0.287015556299E+14      0.190272587142E+07     -0.566040044405E+06     -0.375277649469E-01     -0.126129799065E+00
     1      0.312837435368E+09      0.198900000000E+34      0.974058798266E+13      0.283195752409E+14      0.187740126752E+07     -0.645074807034E+06     -0.427669372308E-01     -0.124450439591E+00
     1      0.313468155368E+09      0.198900000000E+34      0.109158570553E+14      0.278880943623E+14      0.184879531636E+07     -0.722981636857E+06     -0.479312955545E-01     -0.122553560637E+00
     1      0.314098875368E+09      0.198900000000E+34      0.120720624873E+14      0.274078674342E+14      0.181695805716E+07     -0.799624366592E+06     -0.530118131876E-01     -0.120442482117E+00
     1      0.314729595368E+09      0.198900000000E+34      0.132071834864E+14      0.268797340952E+14      0.178194517702E+07     -0.874869041240E+06     -0.579996102319E-01     -0.118120898381E+00
