 # Tag              Time [sec]                Mass [g]             posx [code]             posy [code]             velx [code]             vely [code]             accx [code]             accy [code]
     2      0.315360000000E+03      0.397800000000E+34      0.149598000000E+14     -0.313142533688E+09      0.207850813232E+02     -0.992968460453E+06     -0.659090604691E-01      0.137962607711E-05
     2      0.631035360000E+06      0.397800000000E+34      0.149467120214E+14     -0.626415284260E+12     -0.415371841329E+05     -0.992097996348E+06     -0.658511191506E-01      0.275981739011E-02
     2      0.126175536000E+07      0.397800000000E+34      0.149074317620E+14     -0.125142025841E+13     -0.830222249172E+05     -0.989489005423E+06     -0.656777821401E-01      0.551340439800E-02
     2      0.189247536000E+07      0.397800000000E+34      0.148420281438E+14     -0.187423282535E+13     -0.124361640250E+06     -0.985146068768E+06     -0.653893539013E-01      0.825731532927E-02
     2      0.252319536000E+07      0.397800000000E+34      0.147506158660E+14     -0.249376159314E+13     -0.165482988752E+06     -0.979076805994E+06     -0.649863405859E-01      0.109867418331E-01
     2      0.315391536000E+07      0.397800000000E+34      0.146333552044E+14     -0.310892093007E+13     -0.206314211631E+06     -0.971291861875E+06     -0.644694491480E-01      0.136969009552E-01
     2      0.378463536000E+07      0.397800000000E+34      0.144904517295E+14     -0.371863286706E+13     -0.246783758965E+06     -0.961804887679E+06     -0.638395861075E-01      0.163830435204E-01
     2      0.441535536000E+07      0.397800000000E+34      0.143221559470E+14     -0.432182898669E+13     -0.286820715086E+06     -0.950632517239E+06     -0.630978559623E-01      0.190404624568E-01
     2      0.504607536000E+07      0.397800000000E+34      0.141287628575E+14     -0.491745229540E+13     -0.326354922861E+06     -0.937794337793E+06     -0.622455592553E-01      0.216645010458E-01
     2      0.567679536000E+07      0.397800000000E+34      0.139106114398E+14     -0.550445907574E+13     -0.365317106639E+06     -0.923312855646E+06     -0.612841902955E-01      0.242505610845E-01
     2      0.630751536000E+07      0.397800000000E+34      0.136680840565E+14     -0.608182071528E+13     -0.403638993656E+06     -0.907213456719E+06     -0.602154345409E-01      0.267941109458E-01
     2      0.693823536000E+07      0.397800000000E+34      0.134016057836E+14     -0.664852550915E+13     -0.441253433685E+06     -0.889524362043E+06     -0.590411656456E-01      0.292906935221E-01
     2      0.756895536000E+07      0.397800000000E+34      0.131116436654E+14     -0.720358043277E+13     -0.478094516715E+06     -0.870276578296E+06     -0.577634421766E-01      0.317359340386E-01
     2      0.819967536000E+07      0.397800000000E+34      0.127987058954E+14     -0.774601288202E+13     -0.514097688462E+06     -0.849503843440E+06     -0.563845040065E-01      0.341255477222E-01
     2      0.883039536000E+07      0.397800000000E+34      0.124633409258E+14     -0.827487237746E+13     -0.549199863498E+06     -0.827242567585E+06     -0.549067683884E-01      0.364553473131E-01
     2      0.946111536000E+07      0.397800000000E+34      0.121061365060E+14     -0.878923222988E+13     -0.583339535811E+06     -0.803531769162E+06     -0.533328257189E-01      0.387212504057E-01
     2      0.100918353600E+08      0.397800000000E+34      0.117277186523E+14     -0.928819116407E+13     -0.616456886597E+06     -0.778413006519E+06     -0.516654349981E-01      0.409192866058E-01
     2      0.107225553600E+08      0.397800000000E+34      0.113287505503E+14     -0.977087489806E+13     -0.648493889088E+06     -0.751930305072E+06     -0.499075189931E-01      0.430456044909E-01
     2      0.113532753600E+08      0.397800000000E+34      0.109099313926E+14     -0.102364376751E+14     -0.679394410244E+06     -0.724130080128E+06     -0.480621591145E-01      0.450964783631E-01
     2      0.119839953600E+08      0.397800000000E+34      0.104719951535E+14     -0.106840637454E+14     -0.709104309128E+06     -0.695061055514E+06     -0.461325900147E-01      0.470683147808E-01
     2      0.126147153600E+08      0.397800000000E+34      0.100157093019E+14     -0.111129687958E+14     -0.737571531783E+06     -0.664774178167E+06     -0.441221939166E-01      0.489576588589E-01
     2      0.132454353600E+08      0.397800000000E+34      0.954187345614E+13     -0.115224013237E+14     -0.764746202448E+06     -0.633322528815E+06     -0.420344946838E-01      0.507612003257E-01
     2      0.138761553600E+08      0.397800000000E+34      0.905131798292E+13     -0.119116439536E+14     -0.790580710965E+06     -0.600761228929E+06     -0.398731516425E-01      0.524757793270E-01
     2      0.145068753600E+08      0.397800000000E+34      0.854490254127E+13     -0.122800146944E+14     -0.815029796205E+06     -0.567147344090E+06     -0.376419531646E-01      0.540983919655E-01
     2      0.151375953600E+08      0.397800000000E+34      0.802351457599E+13     -0.126268681339E+14     -0.838050625377E+06     -0.532539783946E+06     -0.353448100255E-01      0.556261955672E-01
     2      0.157683153600E+08      0.397800000000E+34      0.748806776217E+13     -0.129515965698E+14     -0.859602869080E+06     -0.496999198943E+06     -0.329857485463E-01      0.570565136648E-01
     2      0.163990353600E+08      0.397800000000E+34      0.693950040366E+13     -0.132536310737E+14     -0.879648771966E+06     -0.460587874001E+06     -0.305689035334E-01      0.583868406896E-01
     2      0.170297553600E+08      0.397800000000E+34      0.637877378856E+13     -0.135324424886E+14     -0.898153218889E+06     -0.423369619322E+06     -0.280985110279E-01      0.596148463636E-01
     2      0.176604753600E+08      0.397800000000E+34      0.580687050430E+13     -0.137875423550E+14     -0.915083796418E+06     -0.385409658528E+06     -0.255789008769E-01      0.607383797837E-01
     2      0.182911953600E+08      0.397800000000E+34      0.522479271548E+13     -0.140184837669E+14     -0.930410849623E+06     -0.346774514321E+06     -0.230144891408E-01      0.617554731919E-01
     2      0.189219153600E+08      0.397800000000E+34      0.463356040742E+13     -0.142248621544E+14     -0.944107534017E+06     -0.307531891864E+06     -0.204097703486E-01      0.626643454230E-01
     2      0.195526353600E+08      0.397800000000E+34      0.403420959844E+13     -0.144063159922E+14     -0.956149862566E+06     -0.267750560096E+06     -0.177693096161E-01      0.634634050262E-01
     2      0.201833553600E+08      0.397800000000E+34      0.342779052412E+13     -0.145625274326E+14     -0.966516747700E+06     -0.227500231175E+06     -0.150977346400E-01      0.641512530525E-01
     2      0.208140753600E+08      0.397800000000E+34      0.281536579666E+13     -0.146932228620E+14     -0.975190038221E+06     -0.186851438274E+06     -0.123997275823E-01      0.647266855050E-01
     2      0.214447953600E+08      0.397800000000E+34      0.219800854253E+13     -0.147981733799E+14     -0.982154551081E+06     -0.145875411941E+06     -0.968001685930E-02      0.651886954471E-01
     2      0.220755153600E+08      0.397800000000E+34      0.157680052178E+13     -0.148771951993E+14     -0.987398097943E+06     -0.104643955230E+06     -0.694336884946E-02      0.655364747640E-01
     2      0.227062353600E+08      0.397800000000E+34      0.952830232233E+12     -0.149301499683E+14     -0.990911506490E+06     -0.632293178433E+05     -0.419457953479E-02      0.657694155766E-01
     2      0.233369553600E+08      0.397800000000E+34      0.327191001834E+12     -0.149569450118E+14     -0.992688636450E+06     -0.217040694796E+05     -0.143846609043E-02      0.658871113024E-01
     2      0.239676753600E+08      0.397800000000E+34     -0.299020927316E+12     -0.149575334934E+14     -0.992726390304E+06      0.198590273668E+05      0.132014156263E-02      0.658893573646E-01
     2      0.245983953600E+08      0.397800000000E+34     -0.924708320087E+12     -0.149319144966E+14     -0.991024718652E+06      0.613871449456E+05      0.407640922715E-02      0.657761515459E-01
     2      0.252291153600E+08      0.397800000000E+34     -0.154877487111E+13     -0.148801330261E+14     -0.987586620241E+06      0.102807517901E+06      0.682550690642E-02      0.655476939867E-01
     2      0.258598353600E+08      0.397800000000E+34     -0.217012712593E+13     -0.148022799278E+14     -0.982418136646E+06      0.144047570811E+06      0.956261727333E-02      0.652043868293E-01
     2      0.264905553600E+08      0.397800000000E+34     -0.278767639705E+13     -0.146984917292E+14     -0.975528341612E+06      0.185035045383E+06      0.122829441170E-01      0.647468335071E-01
     2      0.271212753600E+08      0.397800000000E+34     -0.340034067168E+13     -0.145689503992E+14     -0.966929325085E+06      0.225698127103E+06      0.149817207522E-01      0.641758376799E-01
     2      0.277519953600E+08      0.397800000000E+34     -0.400704650767E+13     -0.144138830286E+14     -0.956636171952E+06      0.265965571088E+06      0.176542183760E-01      0.634924018191E-01
     2      0.283827153600E+08      0.397800000000E+34     -0.460673091438E+13     -0.142335614316E+14     -0.944666935531E+06      0.305766826947E+06      0.202957543585E-01      0.626977254434E-01
     2      0.290134353600E+08      0.397800000000E+34     -0.519834321524E+13     -0.140283016682E+14     -0.931042605855E+06      0.345032162413E+06      0.229017004511E-01      0.617932030085E-01
     2      0.296441553600E+08      0.397800000000E+34     -0.578084688862E+13     -0.137984634902E+14     -0.915787072811E+06      0.383692785541E+06      0.254674909002E-01      0.607804214557E-01
     2      0.302748753600E+08      0.397800000000E+34     -0.635322138386E+13     -0.135444497096E+14     -0.898927084196E+06      0.421680965248E+06      0.279886304494E-01      0.596611574221E-01
     2      0.309055953600E+08      0.397800000000E+34     -0.691446390932E+13     -0.132667054922E+14     -0.880492198761E+06      0.458930149993E+06      0.304607022187E-01      0.584373741184E-01
     2      0.315363153600E+08      0.397800000000E+34     -0.746359118914E+13     -0.129657175768E+14     -0.860514734330E+06      0.495375084384E+06      0.328793754451E-01      0.571112178796E-01
     2      0.321670353600E+08      0.397800000000E+34     -0.799964118588E+13     -0.126420134212E+14     -0.839029711084E+06      0.530951923503E+06      0.352404130719E-01      0.556850143947E-01
     2      0.327977553600E+08      0.397800000000E+34     -0.852167478579E+13     -0.122961602777E+14     -0.816074790108E+06      0.565598344759E+06      0.375396791731E-01      0.541612646214E-01
     2      0.334284753600E+08      0.397800000000E+34     -0.902877744391E+13     -0.119287641979E+14     -0.791690207317E+06      0.599253657064E+06      0.397731461998E-01      0.525426403941E-01
     2      0.340591953600E+08      0.397800000000E+34     -0.952006078605E+13     -0.115404689705E+14     -0.765918702860E+06      0.631858907147E+06      0.419369020358E-01      0.508319797324E-01
     2      0.346899153600E+08      0.397800000000E+34     -0.999466416482E+13     -0.111319549919E+14     -0.738805446146E+06      0.663356982812E+06      0.440271568509E-01      0.490322818584E-01
     2      0.353206353600E+08      0.397800000000E+34     -0.104517561671E+14     -0.107039380739E+14     -0.710397956612E+06      0.693692712970E+06      0.460402497383E-01      0.471467019311E-01
     2      0.359513553600E+08      0.397800000000E+34     -0.108905360702E+14     -0.102571681883E+14     -0.680746020376E+06      0.722812964255E+06      0.479726551257E-01      0.451785455082E-01
     2      0.365820753600E+08      0.397800000000E+34     -0.113102352442E+14     -0.979242815258E+13     -0.649901602918E+06      0.750666734075E+06      0.498209889491E-01      0.431312627446E-01
     2      0.372127953599E+08      0.397800000000E+34     -0.117101184978E+14     -0.931053225717E+13     -0.617918757950E+06      0.777205239911E+06      0.515820145769E-01      0.410084423372E-01
     2      0.378435153599E+08      0.397800000000E+34     -0.120894853660E+14     -0.881232483841E+13     -0.584853532625E+06      0.802382004727E+06      0.532526484757E-01      0.388138052277E-01
     2      0.384742353599E+08      0.397800000000E+34     -0.124476713365E+14     -0.829867879846E+13     -0.550763869261E+06      0.826152938337E+06      0.548299656069E-01      0.365511980738E-01
     2      0.391049553599E+08      0.397800000000E+34     -0.127840490131E+14     -0.777049407530E+13     -0.515709503745E+06      0.848476414577E+06      0.563112045450E-01      0.342245865008E-01
     2      0.397356753599E+08      0.397800000000E+34     -0.130980292140E+14     -0.722869606546E+13     -0.479751860807E+06      0.869313344159E+06      0.576937723080E-01      0.318380481444E-01
     2      0.403663953599E+08      0.397800000000E+34     -0.133890620034E+14     -0.667423400214E+13     -0.442953946326E+06      0.888627243073E+06      0.589752488933E-01      0.293957654990E-01
     2      0.409971153599E+08      0.397800000000E+34     -0.136566376543E+14     -0.610807929168E+13     -0.405380236882E+06      0.906384296422E+06      0.601533915082E-01      0.269020185813E-01
     2      0.416278353599E+08      0.397800000000E+34     -0.139002875398E+14     -0.553122381115E+13     -0.367096566737E+06      0.922553417575E+06      0.612261384911E-01      0.243611774248E-01
     2      0.422585553599E+08      0.397800000000E+34     -0.141195849541E+14     -0.494467817025E+13     -0.328170012435E+06      0.937106302530E+06      0.621916129132E-01      0.217776944169E-01
     2      0.428892753599E+08      0.397800000000E+34     -0.143141458584E+14     -0.434946994033E+13     -0.288668775238E+06      0.950017479409E+06      0.630481258574E-01      0.191560964919E-01
     2      0.435199953599E+08      0.397800000000E+34     -0.144836295531E+14     -0.374664185388E+13     -0.248662061597E+06      0.961264352977E+06      0.637941793664E-01      0.165009771943E-01
     2      0.441507153599E+08      0.397800000000E+34     -0.146277392736E+14     -0.313724997739E+13     -0.208219961871E+06      0.970827244122E+06      0.644284690562E-01      0.138169886270E-01
     2      0.447814353599E+08      0.397800000000E+34     -0.147462227089E+14     -0.252236186106E+13     -0.167413327496E+06      0.978689424227E+06      0.649498863902E-01      0.111088332958E-01
     2      0.454121553599E+08      0.397800000000E+34     -0.148388724428E+14     -0.190305466834E+13     -0.126313646838E+06      0.984837144362E+06      0.653575206096E-01      0.838125586846E-02
     2      0.460428753599E+08      0.397800000000E+34     -0.149055263161E+14     -0.128041328877E+13     -0.849929199319E+05      0.989259659262E+06      0.656506603172E-01      0.563903485913E-02
     2      0.466735953599E+08      0.397800000000E+34     -0.149460677098E+14     -0.655528437328E+12     -0.435235323307E+05      0.991949246037E+06      0.658287947119E-01      0.288697425510E-02
     2      0.473043153599E+08      0.397800000000E+34     -0.149604257479E+14     -0.294947436546E+11     -0.197812829199E+04      0.992901217587E+06      0.658916144714E-01      0.129895099493E-03
     2      0.479350353599E+08      0.397800000000E+34     -0.149485754209E+14      0.596591165522E+12      0.395705164861E+05      0.992113930698E+06      0.658390122814E-01     -0.262737295501E-02
     2      0.485657553599E+08      0.397800000000E+34     -0.149105376281E+14      0.122163258737E+13      0.810496223496E+05      0.989588788808E+06      0.656710830124E-01     -0.538000010670E-02
     2      0.491964753599E+08      0.397800000000E+34     -0.148463791405E+14      0.184453466401E+13      0.122386533172E+06      0.985330239431E+06      0.653881235402E-01     -0.812316486473E-02
     2      0.498271953599E+08      0.397800000000E+34     -0.147562124821E+14      0.246420630026E+13      0.163508843616E+06      0.979345766254E+06      0.649906322145E-01     -0.108520624937E-01
     2      0.504579153599E+08      0.397800000000E+34     -0.146401957322E+14      0.307956207474E+13      0.204344525943E+06      0.971645875914E+06      0.644793079737E-01     -0.135619134279E-01
     2      0.510886353599E+08      0.397800000000E+34     -0.144985322471E+14      0.368952414090E+13      0.244822056160E+06      0.962244079482E+06      0.638550491086E-01     -0.162479716410E-01
     2      0.517193553599E+08      0.397800000000E+34     -0.143314703032E+14      0.429302411482E+13      0.284870539275E+06      0.951156868689E+06      0.631189516773E-01     -0.189055329552E-01
     2      0.523500753599E+08      0.397800000000E+34     -0.141393026607E+14      0.488900494626E+13      0.324419833439E+06      0.938403686926E+06      0.622723075742E-01     -0.215299432780E-01
     2      0.529807953599E+08      0.397800000000E+34     -0.139223660501E+14      0.547642276986E+13      0.363400672765E+06      0.924006895086E+06      0.613166022558E-01     -0.241166067485E-01
     2      0.536115153599E+08      0.397800000000E+34     -0.136810405812E+14      0.605424873314E+13      0.401744788609E+06      0.907991732292E+06      0.602535121281E-01     -0.266609937825E-01
     2      0.542422353599E+08      0.397800000000E+34     -0.134157490766E+14      0.662147079815E+13      0.439385029092E+06      0.890386271591E+06      0.590849016003E-01     -0.291586489998E-01
     2      0.548729553599E+08      0.397800000000E+34     -0.131269563297E+14      0.717709551363E+13      0.476255476661E+06      0.871221370686E+06      0.578128198090E-01     -0.316051990217E-01
     2      0.555036753599E+08      0.397800000000E+34     -0.128151682903E+14      0.772014975454E+13      0.512291563487E+06      0.850530617797E+06      0.564394970202E-01     -0.339963601231E-01
     2      0.561343953599E+08      0.397800000000E+34     -0.124809311770E+14      0.824968242589E+13      0.547430184484E+06      0.828350272742E+06      0.549673407136E-01     -0.363279457286E-01
     2      0.567651153599E+08      0.397800000000E+34     -0.121248305199E+14      0.876476612800E+13      0.581609807769E+06      0.804719203346E+06      0.533989313582E-01     -0.385958737361E-01
     2      0.573958353599E+08      0.397800000000E+34     -0.117474901346E+14      0.926449878020E+13      0.614770582358E+06      0.779678817288E+06      0.517370178850E-01     -0.407961736579E-01
     2      0.580265553599E+08      0.397800000000E+34     -0.113495710280E+14      0.974800520006E+13      0.646854442915E+06      0.753272989500E+06      0.499845128650E-01     -0.429249935663E-01
     2      0.586572753599E+08      0.397800000000E+34     -0.109317702406E+14      0.102144386355E+14      0.677805211363E+06      0.725547985260E+06      0.481444874023E-01     -0.449786068297E-01
     2      0.592879953599E+08      0.397800000000E+34     -0.104948196249E+14      0.106629822473E+14      0.707568695198E+06      0.696552379093E+06      0.462201657488E-01     -0.469534186303E-01
     2      0.599187153599E+08      0.397800000000E+34     -0.100394845626E+14      0.110928505386E+14      0.736092782310E+06      0.666336969642E+06      0.442149196530E-01     -0.488459722500E-01
     2      0.605494353599E+08      0.397800000000E+34     -0.956656262377E+13      0.115032907300E+14      0.763327532164E+06      0.634954690650E+06      0.421322624500E-01     -0.506529551139E-01
     2      0.611801553599E+08      0.397800000000E+34     -0.907688216962E+13      0.118935840774E+14      0.789225263172E+06      0.602460518203E+06      0.399758429050E-01     -0.523712045822E-01
     2      0.618108753599E+08      0.397800000000E+34     -0.857130090091E+13      0.122630471297E+14      0.813740636112E+06      0.568911374410E+06      0.377494388197E-01     -0.539977134780E-01
     2      0.624415953599E+08      0.397800000000E+34     -0.805070435552E+13      0.126110329248E+14      0.836830733436E+06      0.534366027676E+06      0.354569504145E-01     -0.555296353438E-01
     2      0.630723153599E+08      0.397800000000E+34     -0.751600435715E+13      0.129369321222E+14      0.858455134342E+06      0.498884989749E+06      0.331023934960E-01     -0.569642894162E-01
     2      0.637030353599E+08      0.397800000000E+34     -0.696813741805E+13      0.132401740691E+14      0.878575985467E+06      0.462530409726E+06      0.306898924233E-01     -0.582991653101E-01
     2      0.643337553599E+08      0.397800000000E+34     -0.640806309856E+13      0.135202277988E+14      0.897158067087E+06      0.425365965187E+06      0.282236728851E-01     -0.595319274052E-01
     2      0.649644753599E+08      0.397800000000E+34     -0.583676232637E+13      0.137766029602E+14      0.914168854707E+06      0.387456750671E+06      0.257080544998E-01     -0.606604189261E-01
     2      0.655951953599E+08      0.397800000000E+34     -0.525523567844E+13      0.140088506750E+14      0.929578575923E+06      0.348869163666E+06      0.231474432517E-01     -0.616826657096E-01
     2      0.662259153599E+08      0.397800000000E+34     -0.466450162850E+13      0.142165643237E+14      0.943360262477E+06      0.309670788332E+06      0.205463237770E-01     -0.625968796523E-01
     2      0.668566353599E+08      0.397800000000E+34     -0.406559476331E+13      0.143993802561E+14      0.955489797391E+06      0.269930277147E+06      0.179092515125E-01     -0.634014618327E-01
     2      0.674873553599E+08      0.397800000000E+34     -0.345956397077E+13      0.145569784279E+14      0.965945957117E+06      0.229717230687E+06      0.152408447206E-01     -0.640950053025E-01
     2      0.681180753599E+08      0.397800000000E+34     -0.284747060301E+13      0.146890829603E+14      0.974710448622E+06      0.189102075754E+06      0.125457764057E-01     -0.646762975414E-01
     2      0.687487953599E+08      0.397800000000E+34     -0.223038661770E+13      0.147954626219E+14      0.981767941337E+06      0.148155942063E+06      0.982876613448E-02     -0.651443225730E-01
     2      0.693795153599E+08      0.397800000000E+34     -0.160939270085E+13      0.148759312333E+14      0.987106093928E+06      0.106950537701E+06      0.709457177544E-02     -0.654982627359E-01
     2      0.700102353599E+08      0.397800000000E+34     -0.985576374425E+12      0.149303479920E+14      0.990715575829E+06      0.655580235752E+05      0.434798117192E-02     -0.657375001081E-01
     2      0.706409553599E+08      0.397800000000E+34     -0.360030091914E+12      0.149586177185E+14      0.992590083516E+06      0.240508870811E+05      0.159380376297E-02     -0.658616175827E-01
     2      0.712716753599E+08      0.397800000000E+34      0.266150674564E+12      0.149606910223E+14      0.992726351465E+06     -0.174981848061E+05     -0.116313783324E-02     -0.658703995918E-01
     2      0.719023953599E+08      0.397800000000E+34      0.891869352477E+12      0.149365643872E+14      0.991124157818E+06     -0.590164327808E+05     -0.391801625871E-02     -0.657638324786E-01
     2      0.725331153599E+08      0.397800000000E+34      0.151603018896E+13      0.148862801772E+14      0.987786324699E+06     -0.100431152580E+06     -0.666600786297E-02     -0.655421045157E-01
     2      0.731638353599E+08      0.397800000000E+34      0.213754016940E+13      0.148099265618E+14      0.982718713221E+06     -0.141669822260E+06     -0.940230114360E-02     -0.652056055714E-01
     2      0.737945553599E+08      0.397800000000E+34      0.275531093125E+13      0.147076373603E+14      0.975930213167E+06     -0.182660229144E+06     -0.121221051655E-01     -0.647549264221E-01
     2      0.744252753599E+08      0.397800000000E+34      0.336826066961E+13      0.145795918077E+14      0.967432727371E+06     -0.223330596236E+06     -0.148206579435E-01     -0.641908577153E-01
     2      0.750559953599E+08      0.397800000000E+34      0.397531603129E+13      0.144260142395E+14      0.957241150834E+06     -0.263609707861E+06     -0.174932347753E-01     -0.635143885812E-01
     2      0.756867153599E+08      0.397800000000E+34      0.457541399409E+13      0.142471736988E+14      0.945373344592E+06     -0.303427034322E+06     -0.201351565072E-01     -0.627267048988E-01
     2      0.763174353599E+08      0.397800000000E+34      0.516750372796E+13      0.140433834646E+14      0.931850104413E+06     -0.342712855360E+06     -0.227417977225E-01     -0.618291872174E-01
     2      0.769481553599E+08      0.397800000000E+34      0.575054843472E+13      0.138150005023E+14      0.916695124336E+06     -0.381398382192E+06     -0.253085948331E-01     -0.608234083378E-01
     2      0.775788753599E+08      0.397800000000E+34      0.632352716329E+13      0.135624248389E+14      0.899934955161E+06     -0.419415877911E+06     -0.278310540658E-01     -0.597111305574E-01
     2      0.782095953599E+08      0.397800000000E+34      0.688543659705E+13      0.132860988615E+14      0.881598957926E+06     -0.456698776057E+06     -0.303047593239E-01     -0.584943025837E-01
     2      0.788403153599E+08      0.397800000000E+34      0.743529281043E+13      0.129865065423E+14      0.861719252471E+06     -0.493181797128E+06     -0.327253799145E-01     -0.571750561226E-01
     2      0.794710353599E+08      0.397800000000E+34      0.797213299136E+13      0.126641725910E+14      0.840330661177E+06     -0.528801062840E+06     -0.350886781261E-01     -0.557557021462E-01
     2      0.801017553599E+08      0.397800000000E+34      0.849501712694E+13      0.123196615354E+14      0.817470647976E+06     -0.563494207937E+06     -0.373905166437E-01     -0.542387268468E-01
     2      0.807324753599E+08      0.397800000000E+34      0.900302964902E+13      0.119535767329E+14      0.793179252735E+06     -0.597200489347E+06     -0.396268657876E-01     -0.526267872852E-01
     2      0.813631953599E+08      0.397800000000E+34      0.949528103701E+13      0.115665593132E+14      0.767499021136E+06     -0.629860892507E+06     -0.417938105653E-01     -0.509227067398E-01
     2      0.819939153599E+08      0.397800000000E+34      0.997090937514E+13      0.111592870556E+14      0.740474930172E+06     -0.661418234650E+06     -0.438875575219E-01     -0.491294697647E-01
     2      0.826246353599E+08      0.397800000000E+34      0.104290818613E+14      0.107324732023E+14      0.712154309384E+06     -0.691817264901E+06     -0.459044413784E-01     -0.472502169664E-01
     2      0.832553553599E+08      0.397800000000E+34      0.108689962649E+14      0.102868652084E+14      0.682586757986E+06     -0.721004760976E+06     -0.478409314460E-01     -0.452882395070E-01
     2      0.838860753599E+08      0.397800000000E+34      0.112898823314E+14      0.982324343391E+13      0.651824058018E+06     -0.748929622344E+06     -0.496936378047E-01     -0.432469733437E-01
     2      0.845167953599E+08      0.397800000000E+34      0.116910031304E+14      0.934241977616E+13      0.619920083673E+06     -0.775542959668E+06     -0.514593172367E-01     -0.411299932158E-01
     2      0.851475153599E+08      0.397800000000E+34      0.120716563458E+14      0.884523624864E+13      0.586930706966E+06     -0.800798180377E+06     -0.531348789018E-01     -0.389410063880E-01
     2      0.857782353599E+08      0.397800000000E+34      0.124311755053E+14      0.833256350617E+13      0.552913699912E+06     -0.824651070221E+06     -0.547173897480E-01     -0.366838461625E-01
     2      0.864089553599E+08      0.397800000000E+34      0.127689311470E+14      0.780529932028E+13      0.517928633369E+06     -0.847059870661E+06     -0.562040796451E-01     -0.343624651693E-01
     2      0.870396753599E+08      0.397800000000E+34      0.130843319210E+14      0.726436700713E+13      0.482036772735E+06     -0.867985351960E+06     -0.575923462340E-01     -0.319809284492E-01
     2      0.876703953599E+08      0.397800000000E+34      0.133768256249E+14      0.671071381058E+13      0.445300970683E+06     -0.887390881856E+06     -0.588797594824E-01     -0.295434063384E-01
     2      0.883011153599E+08      0.397800000000E+34      0.136459001702E+14      0.614530924352E+13      0.407785557114E+06     -0.905242489674E+06     -0.600640659386E-01     -0.270541671696E-01
     2      0.889318353599E+08      0.397800000000E+34      0.138910844788E+14      0.556914339014E+13      0.369556226521E+06     -0.921508925794E+06     -0.611431926780E-01     -0.245175698010E-01
     2      0.895625553599E+08      0.397800000000E+34      0.141119493071E+14      0.498322517220E+13      0.330679922968E+06     -0.936161716351E+06     -0.621152509317E-01     -0.219380559870E-01
     2      0.901932753598E+08      0.397800000000E+34      0.143081079978E+14      0.438858058238E+13      0.291224722882E+06     -0.949175213071E+06     -0.629785393951E-01     -0.193201426033E-01
     2      0.908239953598E+08      0.397800000000E+34      0.144792171564E+14      0.378625088767E+13      0.251259715852E+06     -0.960526638171E+06     -0.637315472067E-01     -0.166684137400E-01
     2      0.914547153598E+08      0.397800000000E+34      0.146249772522E+14      0.317729080606E+13      0.210854883670E+06     -0.970196124226E+06     -0.643729565951E-01     -0.139875126776E-01
     2      0.920854353598E+08      0.397800000000E+34      0.147451331425E+14      0.256276665972E+13      0.170080977792E+06     -0.978166748946E+06     -0.649016451874E-01     -0.112821337586E-01
     2      0.927161553598E+08      0.397800000000E+34      0.148394745191E+14      0.194375450781E+13      0.129009395464E+06     -0.984424564794E+06     -0.653166879757E-01     -0.855701416913E-02
     2      0.933468753598E+08      0.397800000000E+34      0.149078362761E+14      0.132133826229E+13      0.877120547054E+05     -0.988958623401E+06     -0.656173589386E-01     -0.581692564582E-02
     2      0.939775953598E+08      0.397800000000E+34      0.149500987988E+14      0.696607789952E+12      0.462612683889E+05     -0.991760994723E+06     -0.658031323142E-01     -0.306666612170E-02
     2      0.946083153598E+08      0.397800000000E+34      0.149661881732E+14      0.706570040558E+11      0.472961762197E+04     -0.992826780922E+06     -0.658736835220E-01     -0.311051325797E-03
     2      0.952390353598E+08      0.397800000000E+34      0.149560763145E+14     -0.555418051117E+12     -0.368101753410E+05     -0.992154124931E+06     -0.658288897339E-01      0.244509364867E-02
     2      0.958697553598E+08      0.397800000000E+34      0.149197810164E+14     -0.118052111945E+13     -0.782853744341E+05     -0.989744213698E+06     -0.656688300907E-01      0.519694279283E-02
     2      0.965004753598E+08      0.397800000000E+34      0.148573659198E+14     -0.180355765252E+13     -0.119623357142E+06     -0.985601276104E+06     -0.653937855654E-01      0.793967763262E-02
     2      0.971311953598E+08      0.397800000000E+34      0.147689404006E+14     -0.242343672618E+13     -0.160751741663E+06     -0.979732575541E+06     -0.650042384737E-01      0.106684956664E-01
     2      0.977619153598E+08      0.397800000000E+34      0.146546593783E+14     -0.303907295071E+13     -0.201598513652E+06     -0.972148397193E+06     -0.645008716305E-01      0.133786187750E-01
     2      0.983926353598E+08      0.397800000000E+34      0.145147230444E+14     -0.364938837136E+13     -0.242092152325E+06     -0.962862030017E+06     -0.638845671568E-01      0.160653015893E-01
     2      0.990233553598E+08      0.397800000000E+34      0.143493765113E+14     -0.425331435581E+13     -0.282161755693E+06     -0.951889743459E+06     -0.631564049362E-01      0.187238398005E-01
     2      0.996540753598E+08      0.397800000000E+34      0.141589093832E+14     -0.484979346530E+13     -0.321737164720E+06     -0.939250758958E+06     -0.623176607254E-01      0.213495783995E-01
     2      0.100284795360E+09      0.397800000000E+34      0.139436552485E+14     -0.543778130620E+13     -0.360749086176E+06     -0.924967216280E+06     -0.613698039220E-01      0.239379198298E-01
     2      0.100915515360E+09      0.397800000000E+34      0.137039910952E+14     -0.601624835866E+13     -0.399129213982E+06     -0.909064134731E+06     -0.603144949922E-01      0.264843320394E-01
     2      0.101546235360E+09      0.397800000000E+34      0.134403366510E+14     -0.658418177930E+13     -0.436810348815E+06     -0.891569369342E+06     -0.591535825640E-01      0.289843564199E-01
     2      0.102176955360E+09      0.397800000000E+34      0.131531536475E+14     -0.714058717457E+13     -0.473726515788E+06     -0.872513562069E+06     -0.578891001911E-01      0.314336156152E-01
     2      0.102807675360E+09      0.397800000000E+34      0.128429450119E+14     -0.768449034193E+13     -0.509813079981E+06     -0.851930088128E+06     -0.565232627917E-01      0.338278211897E-01
     2      0.103438395360E+09      0.397800000000E+34      0.125102539854E+14     -0.821493897551E+13     -0.545006859620E+06     -0.829854997531E+06     -0.550584627703E-01      0.361627811402E-01
     2      0.104069115360E+09      0.397800000000E+34      0.121556631724E+14     -0.873100433359E+13     -0.579246236723E+06     -0.806326951942E+06     -0.534972658277E-01      0.384344072390E-01
     2      0.104699835360E+09      0.397800000000E+34      0.117797935195E+14     -0.923178286462E+13     -0.612471264995E+06     -0.781387156953E+06     -0.518424064681E-01      0.406387221955E-01
     2      0.105330555360E+09      0.397800000000E+34      0.113833032281E+14     -0.971639778929E+13     -0.644623774807E+06     -0.755079289913E+06     -0.500967832089E-01      0.427718666241E-01
     2      0.105961275360E+09      0.397800000000E+34      0.109668866015E+14     -0.101840006356E+14     -0.675647475054E+06     -0.727449423417E+06     -0.482634535042E-01      0.448301058045E-01
     2      0.106591995360E+09      0.397800000000E+34      0.105312728287E+14     -0.106337727242E+14     -0.705488051723E+06     -0.698545944602E+06     -0.463456283889E-01      0.468098362246E-01
     2      0.107222715360E+09      0.397800000000E+34      0.100772247077E+14     -0.110649266022E+14     -0.734093263008E+06     -0.668419470392E+06     -0.443466668537E-01      0.487075918936E-01
     2      0.107853435360E+09      0.397800000000E+34      0.960553730875E+13     -0.114767074211E+14     -0.761413030781E+06     -0.637122758833E+06     -0.422700699605E-01      0.505200504132E-01
     2      0.108484155360E+09      0.397800000000E+34      0.911703658260E+13     -0.118683942588E+14     -0.787399528278E+06     -0.604710616676E+06     -0.401194747090E-01      0.522440387984E-01
     2      0.109114875360E+09      0.397800000000E+34      0.861257791337E+13     -0.122393013818E+14     -0.812007263847E+06     -0.571239803376E+06     -0.378986476645E-01      0.538765390358E-01
     2      0.109745595360E+09      0.397800000000E+34      0.809304462067E+13     -0.125887794449E+14     -0.835193160596E+06     -0.536768931667E+06     -0.356114783586E-01      0.554146933705E-01
     2      0.110376315360E+09      0.397800000000E+34      0.755934641251E+13     -0.129162166288E+14     -0.856916631810E+06     -0.501358364888E+06     -0.332619724745E-01      0.568558093117E-01
     2      0.111007035360E+09      0.397800000000E+34      0.701241779205E+13     -0.132210397105E+14     -0.877139652015E+06     -0.465070111249E+06     -0.308542448281E-01      0.581973643497E-01
     2      0.111637755360E+09      0.397800000000E+34      0.645321642095E+13     -0.135027150668E+14     -0.895826823543E+06     -0.427967715212E+06     -0.283925121580E-01      0.594370103733E-01
     2      0.112268475360E+09      0.397800000000E+34      0.588272144224E+13     -0.137607496086E+14     -0.912945438495E+06     -0.390116146176E+06     -0.258810857372E-01      0.605725777831E-01
     2      0.112899195360E+09      0.397800000000E+34      0.530193176546E+13     -0.139946916431E+14     -0.928465535998E+06     -0.351581684681E+06     -0.233243638179E-01      0.616020792904E-01
     2      0.113529915360E+09      0.397800000000E+34      0.471186431732E+13     -0.142041316653E+14     -0.942359954641E+06     -0.312431806301E+06     -0.207268239252E-01      0.625237133977E-01
     2      0.114160635360E+09      0.397800000000E+34      0.411355226074E+13     -0.143887030739E+14     -0.954604380004E+06     -0.272735063449E+06     -0.180930150105E-01      0.633358675524E-01
     2      0.114791355360E+09      0.397800000000E+34      0.350804318557E+13     -0.145480828128E+14     -0.965177387209E+06     -0.232560965305E+06     -0.154275494806E-01      0.640371209694E-01
     2      0.115422075360E+09      0.397800000000E+34      0.289639727399E+13     -0.146819919364E+14     -0.974060478394E+06     -0.191979856057E+06     -0.127350951153E-01      0.646262471181E-01
     2      0.116052795360E+09      0.397800000000E+34      0.227968544390E+13     -0.147901960977E+14     -0.981238115066E+06     -0.151062791688E+06     -0.100203668880E-01      0.651022158680E-01
     2      0.116683515360E+09      0.397800000000E+34      0.165898747358E+13     -0.148725059575E+14     -0.986697745269E+06     -0.109881415519E+06     -0.728811870364E-02      0.654641952897E-01
     2      0.117314235360E+09      0.397800000000E+34      0.103539011081E+13     -0.149287775159E+14     -0.990429825516E+06     -0.685078327181E+05     -0.454313506846E-02      0.657115531095E-01
     2      0.117944955360E+09      0.397800000000E+34      0.409985169850E+12     -0.149589123634E+14     -0.992427837446E+06     -0.270144840124E+05     -0.179022270647E-02      0.658438578122E-01
     2      0.118575675360E+09      0.397800000000E+34     -0.216132380422E+12     -0.149628578530E+14     -0.992688299188E+06      0.145259811930E+05      0.965797863042E-03      0.658608793935E-01
     2      0.119206395360E+09      0.397800000000E+34     -0.841866333889E+12     -0.149406071913E+14     -0.991210771400E+06      0.560408320551E+05      0.372010077189E-02      0.657625897576E-01
     2      0.119837115360E+09      0.397800000000E+34     -0.146612116666E+13     -0.148921994501E+14     -0.987997857976E+06      0.974573836733E+05      0.646786325856E-02      0.655491627615E-01
     2      0.120467835360E+09      0.397800000000E+34     -0.208780395535E+13     -0.148177194969E+14     -0.983055201422E+06      0.138703124386E+06      0.920427411799E-02      0.652209739055E-01
     2      0.121098555360E+09      0.397800000000E+34     -0.270582629071E+13     -0.147172978458E+14     -0.976391472913E+06      0.179705842760E+06      0.119245421309E-01      0.647785996689E-01
     2      0.121729275360E+09      0.397800000000E+34     -0.331910618333E+13     -0.145911104285E+14     -0.968018357034E+06      0.220393754051E+06      0.146239044575E-01      0.642228164943E-01
     2      0.122359995360E+09      0.397800000000E+34     -0.392656995812E+13     -0.144393782849E+14     -0.957950531250E+06      0.260695625913E+06      0.172976349817E-01      0.635545994214E-01
     2      0.122990715360E+09      0.397800000000E+34     -0.452715413406E+13     -0.142623671758E+14     -0.946205640131E+06      0.300540903132E+06      0.199410525898E-01      0.627751203719E-01
     2      0.123621435360E+09      0.397800000000E+34     -0.511980728617E+13     -0.140603871168E+14     -0.932804264380E+06      0.339859831174E+06      0.225495293701E-01      0.618857460895E-01
     2      0.124252155360E+09      0.397800000000E+34     -0.570349188624E+13     -0.138337918343E+14     -0.917769884711E+06      0.378583578327E+06      0.251184987196E-01      0.608880357389E-01
     2      0.124882875360E+09      0.397800000000E+34     -0.627718611924E+13     -0.135829781459E+14     -0.901128840662E+06      0.416644356213E+06      0.276434633416E-01      0.597837381673E-01
     2      0.125513595360E+09      0.397800000000E+34     -0.683988567210E+13     -0.133083852646E+14     -0.882910284386E+06      0.453975538480E+06      0.301200031221E-01      0.585747888326E-01
     2      0.126144315360E+09      0.397800000000E+34     -0.739060549184E+13     -0.130104940287E+14     -0.863146129526E+06      0.490511777442E+06      0.325437828702E-01      0.572633064062E-01
     2      0.126775035360E+09      0.397800000000E+34     -0.792838150991E+13     -0.126898260599E+14     -0.841870995249E+06      0.526189118484E+06      0.349105599093E-01      0.558515890536E-01
     2      0.127405755360E+09      0.397800000000E+34     -0.845227232974E+13     -0.123469428485E+14     -0.819122145550E+06      0.560945112014E+06      0.372161915053E-01      0.543421104010E-01
     2      0.128036475360E+09      0.397800000000E+34     -0.896136087450E+13     -0.119824447698E+14     -0.794939423915E+06      0.594718922781E+06      0.394566421197E-01      0.527375151944E-01
     2      0.128667195360E+09      0.397800000000E+34     -0.945475599230E+13     -0.115969700324E+14     -0.769365183477E+06      0.627451436354E+06      0.416279904735E-01      0.510406146592E-01
     2      0.129297915360E+09      0.397800000000E+34     -0.993159401587E+13     -0.111911935598E+14     -0.742444212775E+06      0.659085362583E+06      0.437264364111E-01      0.492543815685E-01
     2      0.129928635360E+09      0.397800000000E+34     -0.103910402741E+14     -0.107658258080E+14     -0.714223657250E+06      0.689565335866E+06      0.457483075510E-01      0.473819450278E-01
     2      0.130559355360E+09      0.397800000000E+34     -0.108322905527E+14     -0.103216115213E+14     -0.684752936621E+06      0.718838012030E+06      0.476900657119E-01      0.454265849872E-01
     2      0.131190075360E+09      0.397800000000E+34     -0.112545725018E+14     -0.985932842720E+13     -0.654083658275E+06      0.746852161677E+06      0.495483131037E-01      0.433917264885E-01
     2      0.131820795360E+09      0.397800000000E+34     -0.116571469870E+14     -0.937978587454E+13     -0.622269526834E+06      0.773558759811E+06      0.513197982710E-01      0.412809336597E-01
     2      0.132451515360E+09      0.397800000000E+34     -0.120393093831E+14     -0.888382341569E+13     -0.589366250052E+06      0.798911071611E+06      0.530014217809E-01      0.390979034649E-01
     2      0.133082235360E+09      0.397800000000E+34     -0.124003908066E+14     -0.837230933616E+13     -0.555431441207E+06      0.822864734176E+06      0.545902416430E-01      0.368464592233E-01
     2      0.133712955360E+09      0.397800000000E+34     -0.127397592860E+14     -0.784613913390E+13     -0.520524518169E+06      0.845377834124E+06      0.560834784533E-01      0.345305439062E-01
     2      0.134343675360E+09      0.397800000000E+34     -0.130568208677E+14     -0.730623395102E+13     -0.484706599298E+06      0.866410980887E+06      0.574785202528E-01      0.321542132258E-01
     2      0.134974395360E+09      0.397800000000E+34     -0.133510206543E+14     -0.675353896063E+13     -0.448040396386E+06      0.885927375590E+06      0.587729270926E-01      0.297216285265E-01
     2      0.135605115360E+09      0.397800000000E+34     -0.136218437756E+14     -0.618902171172E+13     -0.410590104801E+06      0.903892875386E+06      0.599644352967E-01      0.272370494920E-01
     2      0.136235835360E+09      0.397800000000E+34     -0.138688162888E+14     -0.561367043485E+13     -0.372421291051E+06      0.920276053138E+06      0.610509614163E-01      0.247048266811E-01
     2      0.136866555360E+09      0.397800000000E+34     -0.140915060074E+14     -0.502849231177E+13     -0.333600777943E+06      0.935048252336E+06      0.620306058670E-01      0.221293939043E-01
     2      0.137497275360E+09      0.397800000000E+34     -0.142895232565E+14     -0.443451171188E+13     -0.294196527557E+06      0.948183637171E+06      0.629016562450E-01      0.195152604559E-01
     2      0.138127995360E+09      0.397800000000E+34     -0.144625215544E+14     -0.383276839864E+13     -0.254277522228E+06      0.959659237655E+06      0.636625903139E-01      0.168670032149E-01
     2      0.138758715360E+09      0.397800000000E+34     -0.146101982175E+14     -0.322431570918E+13     -0.213913643746E+06      0.969454989729E+06      0.643120786589E-01      0.141892586271E-01
     2      0.139389435360E+09      0.397800000000E+34     -0.147322948899E+14     -0.261021871016E+13     -0.173175550999E+06      0.977553770280E+06      0.648489870027E-01      0.114867145848E-01
     2      0.140020155360E+09      0.397800000000E+34     -0.148285979937E+14     -0.199155233314E+13     -0.132134556247E+06      0.983941427004E+06      0.652723781798E-01      0.876410221713E-02
     2      0.140650875360E+09      0.397800000000E+34     -0.148989391025E+14     -0.136939949279E+13     -0.908625002735E+05      0.988606803066E+06      0.655815137653E-01      0.602618760473E-02
     2      0.141281595360E+09      0.397800000000E+34     -0.149431952349E+14     -0.744849191224E+12     -0.494316266123E+05      0.991541756524E+06      0.657758553556E-01      0.327776343479E-02
     2      0.141912315360E+09      0.397800000000E+34     -0.149612890685E+14     -0.118994611675E+12     -0.791445507841E+04      0.992741174461E+06      0.658550654987E-01      0.523640610083E-03
     2      0.142543035360E+09      0.397800000000E+34     -0.149531890746E+14      0.507068795015E+12      0.336163451772E+05      0.992202981823E+06      0.658190082729E-01     -0.223136017309E-02
     2      0.143173755360E+09      0.397800000000E+34     -0.149189095719E+14      0.113224522784E+13      0.750880828664E+05      0.989928144935E+06      0.656677495124E-01     -0.498241686315E-02
     2      0.143804475360E+09      0.397800000000E+34     -0.148585107006E+14      0.175544045357E+13      0.116428171794E+06      0.985920669701E+06      0.654015566802E-01     -0.772471449308E-02
     2      0.144435195360E+09      0.397800000000E+34     -0.147720983158E+14      0.237556372195E+13      0.157564257895E+06      0.980187594469E+06      0.650208983872E-01     -0.104534536070E-01
     2      0.145065915360E+09      0.397800000000E+34     -0.146598238015E+14      0.299152967466E+13      0.198424345861E+06      0.972738977607E+06      0.645264435609E-01     -0.131638586587E-01
     2      0.145696635360E+09      0.397800000000E+34     -0.145218838044E+14      0.360226024478E+13      0.238936925128E+06      0.963587879782E+06      0.639190602617E-01     -0.158511863677E-01
     2      0.146327355360E+09      0.397800000000E+34     -0.143585198883E+14      0.420668654347E+13      0.279031095009E+06      0.952750340993E+06      0.631998141528E-01     -0.185107340175E-01
     2      0.146958075360E+09      0.397800000000E+34     -0.141700181112E+14      0.480375073043E+13      0.318636688752E+06      0.940245352385E+06      0.623699666231E-01     -0.211378476829E-01
     2      0.147588795360E+09      0.397800000000E+34     -0.139567085226E+14      0.539240786508E+13      0.357684396310E+06      0.926094822908E+06      0.614309725686E-01     -0.237279303701E-01
     2      0.148219515360E+09      0.397800000000E+34     -0.137189645855E+14      0.597162773497E+13      0.396105885597E+06      0.910323540871E+06      0.603844778353E-01     -0.262764500575E-01
     2      0.148850235360E+09      0.397800000000E+34     -0.134572025216E+14      0.654039665842E+13      0.433833922034E+06      0.892959130450E+06      0.592323163285E-01     -0.287789476210E-01
     2      0.149480955360E+09      0.397800000000E+34     -0.131718805818E+14      0.709771925816E+13      0.470802486160E+06      0.874032003257E+06      0.579765067930E-01     -0.312310446322E-01
     2      0.150111675360E+09      0.397800000000E+34     -0.128634982437E+14      0.764262020284E+13      0.506946889120E+06      0.853575305011E+06      0.566192492709E-01     -0.336284510132E-01
     2      0.150742395361E+09      0.397800000000E+34     -0.125325953358E+14      0.817414591346E+13      0.542203885806E+06      0.831624857449E+06      0.551629212422E-01     -0.359669725381E-01
     2      0.151373115361E+09      0.397800000000E+34     -0.121797510928E+14      0.869136623161E+13      0.576511785479E+06      0.808219095546E+06      0.536100734557E-01     -0.382425181641E-01
     2      0.152003835361E+09      0.397800000000E+34     -0.118055831403E+14      0.919337604675E+13      0.609810559654E+06      0.783399000175E+06      0.519634254576E-01     -0.404511071835E-01
     2      0.152634555361E+09      0.397800000000E+34     -0.114107464137E+14      0.967929687948E+13      0.642041947081E+06      0.757208026307E+06      0.502258608243E-01     -0.425888761806E-01
     2      0.153265275361E+09      0.397800000000E+34     -0.109959320110E+14      0.101482784183E+14      0.673149555620E+06      0.729692026900E+06      0.484004221102E-01     -0.446520857835E-01
     2      0.153895995361E+09      0.397800000000E+34     -0.105618659826E+14      0.105995000070E+14      0.703078960852E+06      0.700899172586E+06      0.464903055170E-01     -0.466371271989E-01
     2      0.154526715361E+09      0.397800000000E+34     -0.101093080602E+14      0.110321720800E+14      0.731777801230E+06      0.670879867314E+06      0.444988552954E-01     -0.485405285173E-01
     2      0.155157435361E+09      0.397800000000E+34     -0.963905032674E+13      0.114455375433E+14      0.759195869626E+06      0.639686660092E+06      0.424295578878E-01     -0.503589607787E-01
     2      0.155788155361E+09      0.397800000000E+34     -0.915191582945E+13      0.118388730987E+14      0.785285201106E+06      0.607374152974E+06      0.402860358239E-01     -0.520892437882E-01
     2      0.156418875361E+09      0.397800000000E+34     -0.864875713915E+13      0.122114905088E+14      0.810000156771E+06      0.573998905473E+06      0.380720413780E-01     -0.537283516707E-01
     2      0.157049595361E+09      0.397800000000E+34     -0.813045485780E+13      0.125627378005E+14      0.833297503532E+06      0.539619335543E+06      0.357914500004E-01     -0.552734181558E-01
     2      0.157680315361E+09      0.397800000000E+34     -0.759791607706E+13      0.128920004049E+14      0.855136489675E+06      0.504295617322E+06      0.334482535341E-01     -0.567217415829E-01
     2      0.158311035361E+09      0.397800000000E+34     -0.705207279055E+13      0.131987022324E+14      0.875478916080E+06      0.468089575808E+06      0.310465532284E-01     -0.580707896192E-01
     2      0.158941755361E+09      0.397800000000E+34     -0.649388026261E+13      0.134823066792E+14      0.894289202968E+06      0.431064578651E+06      0.285905525618E-01     -0.593182036802E-01
     2      0.159572475361E+09      0.397800000000E+34     -0.592431535638E+13      0.137423175665E+14      0.911534452076E+06      0.393285425250E+06      0.260845498867E-01     -0.604618030472E-01
     2      0.160203195361E+09      0.397800000000E+34     -0.534437482415E+13      0.139782800069E+14      0.927184504131E+06      0.354818233358E+06      0.235329309088E-01     -0.614995886735E-01
     2      0.160833915361E+09      0.397800000000E+34     -0.475507356298E+13      0.141897812003E+14      0.941211991536E+06      0.315730323375E+06      0.209401610148E-01     -0.624297466727E-01
     2      0.161464635361E+09      0.397800000000E+34     -0.415744283857E+13      0.143764511549E+14      0.953592386166E+06      0.276090100555E+06      0.183107774600E-01     -0.632506514837E-01
     2      0.162095355361E+09      0.397800000000E+34     -0.355252848064E+13      0.145379633341E+14      0.964304042210E+06      0.235966935313E+06      0.156493814328E-01     -0.639608687057E-01
     2      0.162726075361E+09      0.397800000000E+34     -0.294138905275E+13      0.146740352270E+14      0.973328233957E+06      0.195431041848E+06      0.129606300054E-01     -0.645591576003E-01
     2      0.163356795361E+09      0.397800000000E+34     -0.232509400003E+13      0.147844288420E+14      0.980649188483E+06      0.154553355296E+06      0.102492279900E-01     -0.650444732536E-01
     2      0.163987515361E+09      0.397800000000E+34     -0.170472177779E+13      0.148689511223E+14      0.986254113172E+06      0.113405407631E+06      0.751991970951E-02     -0.654159683974E-01
     2      0.164618235361E+09      0.397800000000E+34     -0.108135796452E+13      0.149274542830E+14      0.990133218022E+06      0.720592025228E+05      0.477748070123E-02     -0.656729948840E-01
     2      0.165248955361E+09      0.397800000000E+34     -0.456093362418E+12      0.149598360691E+14      0.992279732707E+06      0.305870893695E+05      0.202670936566E-02     -0.658151048141E-01
     2      0.165879675361E+09      0.397800000000E+34      0.169977911203E+12      0.149660399334E+14      0.992689918350E+06     -0.109383632623E+05     -0.727581424156E-03     -0.658420513134E-01
     2      0.166510395361E+09      0.397800000000E+34      0.795760338190E+12      0.149460551349E+14      0.991363074002E+06     -0.524444945826E+05     -0.348057273835E-02     -0.657537889595E-01
     2      0.167141115361E+09      0.397800000000E+34      0.142015891630E+13      0.148999167571E+14      0.988301537805E+06     -0.938586786795E+05     -0.622744801612E-02     -0.655504738558E-01
     2      0.167771835361E+09      0.397800000000E+34      0.204208107497E+13      0.148277056456E+14      0.983510682844E+06     -0.135108451556E+06     -0.896340148739E-02     -0.652324633538E-01
     2      0.168402555361E+09      0.397800000000E+34      0.266043858685E+13      0.147295482661E+14      0.976998907690E+06     -0.176121637882E+06     -0.116836465752E-01     -0.648003154236E-01
     2      0.169033275361E+09      0.397800000000E+34      0.327414947162E+13      0.146056164826E+14      0.968777621655E+06     -0.216826477238E+06     -0.143834242647E-01     -0.642547876739E-01
     2      0.169663995361E+09      0.397800000000E+34      0.388213988893E+13      0.144561272563E+14      0.958861224783E+06     -0.257151749628E+06     -0.170580114231E-01     -0.635968360239E-01
     2      0.170294715361E+09      0.397800000000E+34      0.448334601701E+13      0.142813422648E+14      0.947267082610E+06     -0.297026900054E+06     -0.197027290580E-01     -0.628276130275E-01
     2      0.170925435361E+09      0.397800000000E+34      0.507671591375E+13      0.140815674443E+14      0.934015495743E+06     -0.336382161911E+06     -0.223129504971E-01     -0.619484658554E-01
     2      0.171556155361E+09      0.397800000000E+34      0.566121135700E+13      0.138571524536E+14      0.919129664307E+06     -0.375148679019E+06     -0.248841094772E-01     -0.609609339361E-01
     2      0.172186875361E+09      0.397800000000E+34      0.623580966078E+13      0.136084900619E+14      0.902635647316E+06     -0.413258626045E+06     -0.274117081279E-01     -0.598667462618E-01
     2      0.172817595362E+09      0.397800000000E+34      0.679950546431E+13      0.133360154608E+14      0.884562317057E+06     -0.450645327131E+06     -0.298913248345E-01     -0.586678183626E-01
     2      0.173448315362E+09      0.397800000000E+34      0.735131249076E+13      0.130402055030E+14      0.864941308549E+06     -0.487243372507E+06     -0.323186219690E-01     -0.573662489550E-01
     2      0.174079035362E+09      0.397800000000E+34      0.789026527254E+13      0.127215778671E+14      0.843806964167E+06     -0.522988732892E+06     -0.346893534737E-01     -0.559643162707E-01
     2      0.174709755362E+09      0.397800000000E+34      0.841542084018E+13      0.123806901516E+14      0.821196273547E+06     -0.557818871476E+06     -0.369993722847E-01     -0.544644740710E-01
     2      0.175340475362E+09      0.397800000000E+34      0.892586037186E+13      0.120181388992E+14      0.797148808844E+06     -0.591672853292E+06     -0.392446375825E-01     -0.528693473548E-01
     2      0.175971195362E+09      0.397800000000E+34      0.942069080065E+13      0.116345585522E+14      0.771706655494E+06     -0.624491451789E+06     -0.414212218576E-01     -0.511817277680E-01
     2      0.176601915362E+09      0.397800000000E+34      0.989904637672E+13      0.112306203428E+14      0.744914338565E+06     -0.656217252417E+06     -0.435253177774E-01     -0.494045687204E-01
     2      0.177232635362E+09      0.397800000000E+34      0.103600901817E+14      0.108070311180E+14      0.716818744850E+06     -0.686794753039E+06     -0.455532448433E-01     -0.475409802211E-01
     2      0.177863355362E+09      0.397800000000E+34      0.108030155926E+14      0.103645321027E+14      0.687469040836E+06     -0.716170461001E+06     -0.475014558268E-01     -0.455942234393E-01
     2      0.178494075362E+09      0.397800000000E+34      0.112270476930E+14      0.990389760247E+13      0.656916586671E+06     -0.744292986690E+06     -0.493665429721E-01     -0.435677050013E-01
     2      0.179124795362E+09      0.397800000000E+34      0.116314446279E+14      0.942593364905E+13      0.625214846310E+06     -0.771113133409E+06     -0.511452439554E-01     -0.414649710328E-01
     2      0.179755515362E+09      0.397800000000E+34      0.120154989022E+14      0.893147658943E+13      0.592419293977E+06     -0.796583983423E+06     -0.528344475903E-01     -0.392897009581E-01
     2      0.180386235362E+09      0.397800000000E+34      0.123785386173E+14      0.842139162258E+13      0.558587317107E+06     -0.820660980015E+06     -0.544311992685E-01     -0.370457010648E-01
     2      0.181016955362E+09      0.397800000000E+34      0.127199286472E+14      0.789657128553E+13      0.523778115946E+06     -0.843302005413E+06     -0.559327061280E-01     -0.347368978480E-01
     2      0.181647675362E+09      0.397800000000E+34      0.130390717485E+14      0.735793389159E+13      0.488052599984E+06     -0.864467454459E+06     -0.573363419373E-01     -0.323673311433E-01
     2      0.182278395362E+09      0.397800000000E+34      0.133354096059E+14      0.680642192354E+13      0.451473281387E+06     -0.884120303872E+06     -0.586396516901E-01     -0.299411470619E-01
     2      0.182909115362E+09      0.397800000000E+34      0.136084238081E+14      0.624300038457E+13      0.414104165639E+06     -0.902226177005E+06     -0.598403558992E-01     -0.274625907396E-01
     2      0.183539835362E+09      0.397800000000E+34      0.138576367547E+14      0.566865510974E+13      0.376010639562E+06     -0.918753403971E+06     -0.609363545845E-01     -0.249359989120E-01
     2      0.184170555362E+09      0.397800000000E+34      0.140826124914E+14      0.508439104111E+13      0.337259356921E+06     -0.933673077034E+06     -0.619257309477E-01     -0.223657923305E-01
     2      0.184801275362E+09      0.397800000000E+34      0.142829574726E+14      0.449123046935E+13      0.297918121819E+06     -0.946959101167E+06     -0.628067547255E-01     -0.197564680295E-01
     2      0.185431995362E+09      0.397800000000E+34      0.144583212498E+14      0.389021124515E+13      0.258055770067E+06     -0.958588239697E+06     -0.635778852180E-01     -0.171125914617E-01
     2      0.186062715362E+09      0.397800000000E+34      0.146083970839E+14      0.328238496321E+13      0.217742048760E+06     -0.968540154942E+06     -0.642377739851E-01     -0.144387885120E-01
     2      0.186693435362E+09      0.397800000000E+34      0.147329224821E+14      0.266881512240E+13      0.177047494252E+06     -0.976797443786E+06     -0.647852672068E-01     -0.117397374059E-01
     2      0.187324155362E+09      0.397800000000E+34      0.148316796567E+14      0.205057526498E+13      0.136043308749E+06     -0.983345668114E+06     -0.652194077033E-01     -0.902016052705E-02
     2      0.187954875362E+09      0.397800000000E+34      0.149044959057E+14      0.142874709824E+13      0.948012357389E+05     -0.988173380062E+06     -0.655394366116E-01     -0.628481615534E-02
     2      0.188585595362E+09      0.397800000000E+34      0.149512439150E+14      0.804418601971E+12      0.533934344721E+05     -0.991272142040E+06     -0.657447947141E-01     -0.353849014367E-02
     2      0.189216315362E+09      0.397800000000E+34      0.149718419806E+14      0.178682124835E+12      0.118923537127E+05     -0.992636541483E+06     -0.658351234197E-01     -0.785987545094E-03
     2      0.189847035362E+09      0.397800000000E+34      0.149662541512E+14     -0.447367526798E+12     -0.296293950167E+05     -0.992264200314E+06     -0.658102653926E-01      0.196787579349E-02
     2      0.190477755362E+09      0.397800000000E+34      0.149344902914E+14     -0.107263500437E+13     -0.710991644771E+05     -0.990155779097E+06     -0.656702648294E-01      0.471828165702E-02
     2      0.191108475362E+09      0.397800000000E+34      0.148766060633E+14     -0.169602633357E+13     -0.112444398818E+06     -0.986314975873E+06     -0.654153673842E-01      0.746041789243E-02
     2      0.191739195362E+09      0.397800000000E+34      0.147927028294E+14     -0.231645082838E+13     -0.153592760525E+06     -0.980748519681E+06     -0.650460197401E-01      0.101894868284E-01
     2      0.192369915362E+09      0.397800000000E+34      0.146829274751E+14     -0.293282299934E+13     -0.194472256984E+06     -0.973466158775E+06     -0.645628688301E-01      0.129007136704E-01
     2      0.193000635362E+09      0.397800000000E+34      0.145474721508E+14     -0.354406445273E+13     -0.235011366446E+06     -0.964480643566E+06     -0.639667607067E-01      0.155893548554E-01
     2      0.193631355362E+09      0.397800000000E+34      0.143865739360E+14     -0.414910577733E+13     -0.275139163171E+06     -0.953807704293E+06     -0.632587390631E-01      0.182507063532E-01
     2      0.194262075362E+09      0.397800000000E+34      0.142005144240E+14     -0.474688841546E+13     -0.314785441519E+06     -0.941466023500E+06     -0.624400434087E-01      0.208801118980E-01
     2      0.194892795363E+09      0.397800000000E+34      0.139896192287E+14     -0.533636651499E+13     -0.353880838798E+06     -0.927477203331E+06     -0.615121069020E-01      0.234729711372E-01
     2      0.195523515363E+09      0.397800000000E+34      0.137542574151E+14     -0.591650875918E+13     -0.392356956626E+06     -0.911865727725E+06     -0.604765538437E-01      0.260247476820E-01
     2      0.196154235363E+09      0.397800000000E+34      0.134948408528E+14     -0.648630017103E+13     -0.430146480611E+06     -0.894658919561E+06     -0.593351968355E-01      0.285309770477E-01
     2      0.196784955363E+09      0.397800000000E+34      0.132118234954E+14     -0.704474388903E+13     -0.467183298133E+06     -0.875886892836E+06     -0.580900336097E-01      0.309872744664E-01
     2      0.197415675363E+09      0.397800000000E+34      0.129057005858E+14     -0.759086291121E+13     -0.503402614028E+06     -0.855582499964E+06     -0.567432435337E-01      0.333893425624E-01
     2      0.198046395363E+09      0.397800000000E+34      0.125770077893E+14     -0.812370180447E+13     -0.538741063959E+06     -0.833781274274E+06     -0.552971837969E-01      0.357329788732E-01
     2      0.198677115363E+09      0.397800000000E+34      0.122263202562E+14     -0.864232837610E+13     -0.573136825291E+06     -0.810521367816E+06     -0.537543852858E-01      0.380140832056E-01
     2      0.199307835363E+09      0.397800000000E+34      0.118542516152E+14     -0.914583530466E+13     -0.606529725264E+06     -0.785843484590E+06     -0.521175481553E-01      0.402286648127E-01
     2      0.199938555363E+09      0.397800000000E+34      0.114614528994E+14     -0.963334172732E+13     -0.638861346280E+06     -0.759790809304E+06     -0.503895371032E-01      0.423728493791E-01
     2      0.200569275363E+09      0.397800000000E+34      0.110486114067E+14     -0.101039947809E+14     -0.670075128117E+06     -0.732408931785E+06     -0.485733763562E-01      0.444428858028E-01
     2      0.201199995363E+09      0.397800000000E+34      0.106164494973E+14     -0.105569710939E+14     -0.700116466897E+06     -0.703745767189E+06     -0.466722443766E-01      0.464351527614E-01
     2      0.201830715363E+09      0.397800000000E+34      0.101657233294E+14     -0.109914782268E+14     -0.728932810620E+06     -0.673851472135E+06     -0.446894682990E-01      0.483461650508E-01
     2      0.202461435363E+09      0.397800000000E+34      0.969722153556E+13     -0.114067560586E+14     -0.756473751116E+06     -0.642778356916E+06     -0.426285181063E-01      0.501725796861E-01
     2      0.203092155363E+09      0.397800000000E+34      0.921176384298E+13     -0.118020781162E+14     -0.782691112241E+06     -0.610580793940E+06     -0.404930005550E-01      0.519112017536E-01
     2      0.203722875363E+09      0.397800000000E+34      0.871019963864E+13     -0.121767528453E+14     -0.807539034162E+06     -0.577315122564E+06     -0.382866528614E-01      0.535589900028E-01
     2      0.204353595363E+09      0.397800000000E+34      0.819340648297E+13     -0.125301248203E+14     -0.830974053592E+06     -0.543039550482E+06     -0.360133361591E-01      0.551130621699E-01
     2      0.204984315363E+09      0.397800000000E+34      0.766228857407E+13     -0.128615758906E+14     -0.852955179829E+06     -0.507814051843E+06     -0.336770287389E-01      0.565707000230E-01
     2      0.205615035363E+09      0.397800000000E+34      0.711777516540E+13     -0.131705262615E+14     -0.873443966461E+06     -0.471700262279E+06     -0.312818190838E-01      0.579293541196E-01
     2      0.206245755363E+09      0.397800000000E+34      0.656081893958E+13     -0.134564355088E+14     -0.892404578621E+06     -0.434761371026E+06     -0.288318987111E-01      0.591866482686E-01
     2      0.206876475363E+09      0.397800000000E+34      0.599239434126E+13     -0.137188035239E+14     -0.909803855671E+06     -0.397062010319E+06     -0.263315548332E-01      0.603403836885E-01
     2      0.207507195363E+09      0.397800000000E+34      0.541349587186E+13     -0.139571713878E+14     -0.925611369200E+06     -0.358668142271E+06     -0.237851628514E-01      0.613885428555E-01
     2      0.208137915363E+09      0.397800000000E+34      0.482513634933E+13     -0.141711221743E+14     -0.939799476237E+06     -0.319646943417E+06     -0.211971786951E-01      0.623292930337E-01
     2      0.208768635363E+09      0.397800000000E+34      0.422834513577E+13     -0.143602816788E+14     -0.952343367595E+06     -0.280066687143E+06     -0.185721310197E-01      0.631609894808E-01
     2      0.209399355363E+09      0.397800000000E+34      0.362416633621E+13     -0.145243190724E+14     -0.963221111240E+06     -0.239996624182E+06     -0.159146132772E-01      0.638821783258E-01
     2      0.210030075363E+09      0.397800000000E+34      0.301365697154E+13     -0.146629474803E+14     -0.972413690639E+06     -0.199506861417E+06     -0.132292756733E-01      0.644915991109E-01
     2      0.210660795363E+09      0.397800000000E+34      0.239788512895E+13     -0.147759244831E+14     -0.979905037988E+06     -0.158668239171E+06     -0.105208170255E-01      0.649881869958E-01
     2      0.211291515363E+09      0.397800000000E+34      0.177792809293E+13     -0.148630525405E+14     -0.985682062282E+06     -0.117552207230E+06     -0.779397653552E-02      0.653710746176E-01
     2      0.211922235363E+09      0.397800000000E+34      0.115487046032E+13     -0.149241793364E+14     -0.989734672181E+06     -0.762306997870E+05     -0.505352549166E-02      0.656395936063E-01
     2      0.212552955363E+09      0.397800000000E+34      0.529802242481E+12     -0.149591980446E+14     -0.992055793612E+06     -0.347760095537E+05     -0.230425891474E-02      0.657932757507E-01
     2      0.213183675363E+09      0.397800000000E+34     -0.961830418679E+11     -0.149680475151E+14     -0.992641382091E+06      0.673933876319E+04      0.449012837203E-03      0.658318538134E-01
     2      0.213814395363E+09      0.397800000000E+34     -0.721990280005E+12     -0.149507123806E+14     -0.991490429748E+06      0.482427153830E+05      0.320147249089E-02      0.657552619943E-01
     2      0.214445115363E+09      0.397800000000E+34     -0.134652468125E+13     -0.149072230824E+14     -0.988604967030E+06      0.896615125554E+05      0.594830429170E-02      0.655636360408E-01
     2      0.215075835363E+09      0.397800000000E+34     -0.196869369245E+13     -0.148376558169E+14     -0.983990059079E+06      0.130923271622E+06      0.868470243459E-02      0.652573130046E-01
     2      0.215706555363E+09      0.397800000000E+34     -0.258740890947E+13     -0.147421324011E+14     -0.977653796813E+06      0.171955809815E+06      0.114058794774E-01      0.648368306460E-01
     2      0.216337275363E+09      0.397800000000E+34     -0.320158798141E+13     -0.146208200590E+14     -0.969607282691E+06      0.212687346567E+06      0.141070747214E-01      0.643029264870E-01
     2      0.216967995364E+09      0.397800000000E+34     -0.381015650418E+13     -0.144739311283E+14     -0.959864611222E+06      0.253046629112E+06      0.167835625452E-01      0.636565365135E-01
     2      0.217598715364E+09      0.397800000000E+34     -0.441204990012E+13     -0.143017226882E+14     -0.948442844228E+06      0.292963057165E+06      0.194306606760E-01      0.628987935309E-01
     2      0.218229435364E+09      0.397800000000E+34     -0.500621528038E+13     -0.141044961086E+14     -0.935361980916E+06      0.332366806447E+06      0.220437383857E-01      0.620310251738E-01
     2      0.218860155364E+09      0.397800000000E+34     -0.559161328681E+13     -0.138825965223E+14     -0.920644922806E+06      0.371188950853E+06      0.246182245948E-01      0.610547515753E-01
     2      0.219490875364E+09      0.397800000000E+34     -0.616721991009E+13     -0.136364122204E+14     -0.904317433586E+06      0.409361583040E+06      0.271496158727E-01      0.599716826992E-01
     2      0.220121595364E+09      0.397800000000E+34     -0.673202828103E+13     -0.133663739721E+14     -0.886408093951E+06      0.446817933228E+06      0.296334843185E-01      0.587837153389E-01
     2      0.220752315364E+09      0.397800000000E+34     -0.728505043174E+13     -0.130729542704E+14     -0.866948251514E+06      0.483492486007E+06      0.320654853091E-01      0.574929297902E-01
     2      0.221383035364E+09      0.397800000000E+34     -0.782531902374E+13     -0.127566665045E+14     -0.845971965881E+06      0.519321094943E+06      0.344413651006E-01      0.561015862022E-01
     2      0.222013755364E+09      0.397800000000E+34     -0.835188903990E+13     -0.124180640612E+14     -0.823515948973E+06      0.554241094777E+06      0.367569682709E-01      0.546121206138E-01
     2      0.222644475364E+09      0.397800000000E+34     -0.886383943728E+13     -0.120577393556E+14     -0.799619500716E+06      0.588191411039E+06      0.390082449886E-01      0.530271406817E-01
     2      0.223275195364E+09      0.397800000000E+34     -0.936027475798E+13     -0.116763227943E+14     -0.774324440195E+06      0.621112666860E+06      0.411912580972E-01      0.513494211088E-01
     2      0.223905915364E+09      0.397800000000E+34     -0.984032669512E+13     -0.112744816715E+14     -0.747675032410E+06      0.652947286814E+06      0.433021900010E-01      0.495818987801E-01
     2      0.224536635364E+09      0.397800000000E+34     -0.103031556114E+14     -0.108529190011E+14     -0.719717910751E+06      0.683639597604E+06      0.453373493415E-01      0.477276676147E-01
     2      0.225167355364E+09      0.397800000000E+34     -0.107479520072E+14     -0.104123722862E+14     -0.690501995329E+06      0.713135925410E+06      0.472931774517E-01      0.457899731432E-01
     2      0.225798075364E+09      0.397800000000E+34     -0.111739379364E+14     -0.995361222773E+13     -0.660078407313E+06      0.741384689734E+06      0.491662545780E-01      0.437722068204E-01
     2      0.226428795364E+09      0.397800000000E+34     -0.115803683662E+14     -0.947744137612E+13     -0.628500379415E+06      0.768336493577E+06      0.509533058583E-01      0.416779000822E-01
     2      0.227059515364E+09      0.397800000000E+34     -0.119665324798E+14     -0.898469272636E+13     -0.595823162690E+06      0.793944209791E+06      0.526512070455E-01      0.395107181589E-01
     2      0.227690235364E+09      0.397800000000E+34     -0.123317549196E+14     -0.847622826031E+13     -0.562103929802E+06      0.818163063456E+06      0.542569899672E-01      0.372744536535E-01
     2      0.228320955364E+09      0.397800000000E+34     -0.126753969671E+14     -0.795293743813E+13     -0.527401674935E+06      0.840950710129E+06      0.557678477116E-01      0.349730198983E-01
     2      0.228951675364E+09      0.397800000000E+34     -0.129968576599E+14     -0.741573564187E+13     -0.491777110524E+06      0.862267309845E+06      0.571811395304E-01      0.326104441010E-01
     2      0.229582395364E+09      0.397800000000E+34     -0.132955748418E+14     -0.686556257360E+13     -0.455292560984E+06      0.882075596723E+06      0.584943954510E-01      0.301908602909E-01
     2      0.230213115364E+09      0.397800000000E+34     -0.135710261453E+14     -0.630338061116E+13     -0.418011853621E+06      0.900340944074E+06      0.597053205883E-01      0.277185020802E-01
     2      0.230843835364E+09      0.397800000000E+34     -0.138227299048E+14     -0.573017312424E+13     -0.380000206922E+06      0.917031424877E+06      0.608117991505E-01      0.251976952502E-01
     2      0.231474555364E+09      0.397800000000E+34     -0.140502459977E+14     -0.514694275384E+13     -0.341324116417E+06      0.932117867536E+06      0.618118981308E-01      0.226328501782E-01
     2      0.232105275364E+09      0.397800000000E+34     -0.142531766133E+14     -0.455470965804E+13     -0.302051238316E+06      0.945573906807E+06      0.627038706788E-01      0.200284541157E-01
     2      0.232735995364E+09      0.397800000000E+34     -0.144311669482E+14     -0.395450972723E+13     -0.262250271115E+06      0.957376029818E+06      0.634861591458E-01      0.173890633343E-01
     2      0.233366715364E+09      0.397800000000E+34     -0.145839058252E+14     -0.334739277184E+13     -0.221990835393E+06      0.967503617090E+06      0.641573977988E-01      0.147192951504E-01
     2      0.233997435364E+09      0.397800000000E+34     -0.147111262371E+14     -0.273442068585E+13     -0.181343351998E+06      0.975938978504E+06      0.647164151981E-01      0.120238198440E-01
     2      0.234628155364E+09      0.397800000000E+34     -0.148126058123E+14     -0.211666558918E+13     -0.140378918842E+06      0.982667384124E+06      0.651622362354E-01      0.930735248637E-02
     2      0.235258875364E+09      0.397800000000E+34     -0.148881672030E+14     -0.149520795227E+13     -0.991691865212E+05      0.987677089862E+06      0.654940838273E-01      0.657464468941E-02
     2      0.235889595364E+09      0.397800000000E+34     -0.149376783940E+14     -0.871134706146E+12     -0.577862329707E+05      0.990959357899E+06      0.657113802630E-01      0.383047629219E-02
     2      0.236520315364E+09      0.397800000000E+34     -0.149610529329E+14     -0.245537341257E+12     -0.163024373860E+05      0.992508471860E+06      0.658137482027E-01      0.107964699893E-02
     2      0.237151035364E+09      0.397800000000E+34     -0.149582500798E+14      0.380490001632E+12      0.252096463783E+05      0.992321746695E+06      0.658010113256E-01     -0.167303201693E-02
     2      0.237781755364E+09      0.397800000000E+34     -0.149292748778E+14      0.100585244506E+13      0.666774167074E+05      0.990399533265E+06      0.656731946258E-01     -0.442274652792E-02
     2      0.238412475364E+09      0.397800000000E+34     -0.148741781431E+14      0.162945628973E+13      0.108028351200E+06      0.986745217609E+06      0.654305243570E-01     -0.716468767216E-02
     2      0.239043195365E+09      0.397800000000E+34     -0.147930563748E+14      0.225021092725E+13      0.149190133498E+06      0.981365214912E+06      0.650734276240E-01     -0.989406036279E-02
     2      0.239673915365E+09      0.397800000000E+34     -0.146860515852E+14      0.286703074735E+13      0.190090779745E+06      0.974268958171E+06      0.646025316244E-01     -0.126060916725E-01
     2      0.240304635365E+09      0.397800000000E+34     -0.145533510504E+14      0.347883703636E+13      0.230658764457E+06      0.965468881588E+06      0.640186625393E-01     -0.152960391784E-01
     2      0.240935355365E+09      0.397800000000E+34     -0.143951869818E+14      0.408455986349E+13      0.270823145588E+06      0.954980398708E+06      0.633228440771E-01     -0.179591992527E-01
     2      0.241566075365E+09      0.397800000000E+34     -0.142118361187E+14      0.468313995167E+13      0.310513688560E+06      0.942821875361E+06      0.625162956715E-01     -0.205909152850E-01
     2      0.242196795365E+09      0.397800000000E+34     -0.140036192436E+14      0.527353052982E+13      0.349660989056E+06      0.929014597434E+06      0.616004303378E-01     -0.231865858211E-01
     2      0.242827515365E+09      0.397800000000E+34     -0.137709006201E+14      0.585469916298E+13      0.388196594352E+06      0.913582733542E+06      0.605768521913E-01     -0.257416726052E-01
     2      0.243458235365E+09      0.397800000000E+34     -0.135140873546E+14      0.642562955751E+13      0.426053122973E+06      0.896553292663E+06      0.594473536313E-01     -0.282517085103E-01
     2      0.244088955365E+09      0.397800000000E+34     -0.132336286841E+14      0.698532333783E+13      0.463164382479E+06      0.877956076807E+06      0.582139121969E-01     -0.307123053437E-01
     2      0.244719675365E+09      0.397800000000E+34     -0.129300151890E+14      0.753280179187E+13      0.499465485155E+06      0.857823628808E+06      0.568786870990E-01     -0.331191615142E-01
     2      0.245350395365E+09      0.397800000000E+34     -0.126037779346E+14      0.806710758207E+13      0.534892961424E+06      0.836191175325E+06      0.554440154357E-01     -0.354680695466E-01
     2      0.245981115365E+09      0.397800000000E+34     -0.122554875417E+14      0.858730641886E+13      0.569384870763E+06      0.813096565153E+06      0.539124080968E-01     -0.377549234316E-01
     2      0.246611835365E+09      0.397800000000E+34     -0.118857531875E+14      0.909248869391E+13      0.602880909953E+06      0.788580202962E+06      0.522865453652E-01     -0.399757257971E-01
     2      0.247242555365E+09      0.397800000000E+34     -0.114952215401E+14      0.958177107006E+13      0.635322518448E+06      0.762684978560E+06      0.505692722228E-01     -0.421265948902E-01
     2      0.247873275365E+09      0.397800000000E+34     -0.110845756265E+14      0.100542980253E+14      0.666652980703E+06      0.735456191826E+06      0.487635933687E-01     -0.442037713550E-01
     2      0.248503995365E+09      0.397800000000E+34     -0.106545336376E+14      0.105092433483E+14      0.696817525265E+06      0.706941473431E+06      0.468726679594E-01     -0.462036247973E-01
     2      0.249134715365E+09      0.397800000000E+34     -0.102058476718E+14      0.109458115818E+14      0.725763420466E+06      0.677190701486E+06      0.448998040792E-01     -0.481226601233E-01
     2      0.249765435365E+09      0.397800000000E+34     -0.973930241923E+13      0.113632394137E+14      0.753440066539E+06      0.646255914275E+06      0.428484529510E-01     -0.499575236404E-01
     2      0.250396155365E+09      0.397800000000E+34     -0.925571378901E+13      0.117607970104E+14      0.779799084012E+06      0.614191219206E+06      0.407222028976E-01     -0.517050089119E-01
     2      0.251026875365E+09      0.397800000000E+34     -0.875592748198E+13      0.121377892922E+14      0.804794398210E+06      0.581052698160E+06      0.385247730641E-01     -0.533620623533E-01
     2      0.251657595365E+09      0.397800000000E+34     -0.824081751147E+13      0.124935571482E+14      0.828382319731E+06      0.546898309388E+06      0.362600069121E-01     -0.549257885613E-01
     2      0.252288315365E+09      0.397800000000E+34     -0.771128467462E+13      0.128274785878E+14      0.850521620746E+06      0.511787786136E+06      0.339318654977E-01     -0.563934553662E-01
     2      0.252919035365E+09      0.397800000000E+34     -0.716825497685E+13      0.131389698275E+14      0.871173606995E+06      0.475782532174E+06      0.315444205436E-01     -0.577624985991E-01
     2      0.253549755365E+09      0.397800000000E+34     -0.661267801240E+13      0.134274863107E+14      0.890302185350E+06      0.438945514407E+06      0.291018473202E-01     -0.590305265650E-01
     2      0.254180475365E+09      0.397800000000E+34     -0.604552530358E+13      0.136925236593E+14      0.907873926840E+06      0.401341152762E+06      0.266084173444E-01     -0.601953242147E-01
     2      0.254811195365E+09      0.397800000000E+34     -0.546778860184E+13      0.139336185545E+14      0.923858125000E+06      0.363035207539E+06      0.240684909122E-01     -0.612548570083E-01
     2      0.255441915365E+09      0.397800000000E+34     -0.488047815346E+13      0.141503495461E+14      0.938226849479E+06      0.324094664426E+06      0.214865094763E-01     -0.622072744623E-01
     2      0.256072635365E+09      0.397800000000E+34     -0.428462093298E+13      0.143423377889E+14      0.950954994784E+06      0.284587617379E+06      0.188669878823E-01     -0.630509133764E-01
     2      0.256703355365E+09      0.397800000000E+34     -0.368125884745E+13      0.145092477037E+14      0.962020324088E+06      0.244583149564E+06      0.162145064772E-01     -0.637843007321E-01
     2      0.257334075365E+09      0.397800000000E+34     -0.307144691459E+13      0.146507875639E+14      0.971403508029E+06      0.204151212580E+06      0.135337031045E-01     -0.644061562598E-01
     2      0.257964795365E+09      0.397800000000E+34     -0.245625141809E+13      0.147667100042E+14      0.979088158421E+06      0.163362504168E+06      0.108292649987E-01     -0.649153946689E-01
     2      0.258595515365E+09      0.397800000000E+34     -0.183674804333E+13      0.148568124525E+14      0.985060856830E+06      0.122288344623E+06      0.810592059421E-02     -0.653111275376E-01
     2      0.259226235365E+09      0.397800000000E+34     -0.121401999657E+13      0.149209374836E+14      0.989311177958E+06      0.810005521134E+05      0.536843126262E-02     -0.655926648586E-01
     2      0.259856955365E+09      0.397800000000E+34     -0.589156111197E+12      0.149589730932E+14      0.991831707795E+06      0.395713171459E+05      0.262158299309E-02     -0.657595162389E-01
     2      0.260487675365E+09      0.397800000000E+34      0.367510559470E+11      0.149708528933E+14      0.992618056519E+06     -0.192692362394E+04     -0.129821970239E-03     -0.658113917508E-01
     2      0.261118395366E+09      0.397800000000E+34      0.662607134631E+12      0.149565562275E+14      0.991668866094E+06     -0.434216140055E+05     -0.288097351872E-02     -0.657482024325E-01
     2      0.261749115366E+09      0.397800000000E+34      0.128731785446E+13      0.149161082064E+14      0.988985812592E+06     -0.848402050918E+05     -0.562706208322E-02     -0.655700604390E-01
     2      0.262379835366E+09      0.397800000000E+34      0.190979095788E+13      0.148495796630E+14      0.984573603198E+06     -0.126110282063E+06     -0.836328703683E-02     -0.652772788406E-01
     2      0.263010555366E+09      0.397800000000E+34      0.252893810963E+13      0.147570870283E+14      0.978439967926E+06     -0.167159690752E+06     -0.110848650819E-01     -0.648703710715E-01
     2      0.263641275366E+09      0.397800000000E+34      0.314367679931E+13      0.146387921272E+14      0.970595646052E+06     -0.207916663754E+06     -0.137870386063E-01     -0.643500500286E-01
     2      0.264271995366E+09      0.397800000000E+34      0.375293223370E+13      0.144949018946E+14      0.961054367295E+06     -0.248309945852E+06     -0.164650839952E-01     -0.637172268219E-01
     2      0.264902715366E+09      0.397800000000E+34      0.435563921561E+13      0.143256680136E+14      0.949832827766E+06     -0.288268918554E+06     -0.191143198829E-01     -0.629730091787E-01
     2      0.265533435366E+09      0.397800000000E+34      0.495074400591E+13      0.141313864744E+14      0.936950660741E+06     -0.327723723506E+06     -0.217301153305E-01     -0.621186995055E-01
     2      0.266164155366E+09      0.397800000000E+34      0.553720616546E+13      0.139123970567E+14      0.922430402298E+06     -0.366605384583E+06     -0.243078979166E-01     -0.611557926087E-01
     2      0.266794875366E+09      0.397800000000E+34      0.611400037382E+13      0.136690827351E+14      0.906297451889E+06     -0.404845928431E+06     -0.268431617244E-01     -0.600859730810E-01
     2      0.267425595366E+09      0.397800000000E+34      0.668011822152E+13      0.134018690088E+14      0.888580027902E+06     -0.442378503257E+06     -0.293314752133E-01     -0.589111123550E-01
     2      0.268056315366E+09      0.397800000000E+34      0.723456997265E+13      0.131112231577E+14      0.869309118309E+06     -0.479137495661E+06     -0.317684889610E-01     -0.576332654320E-01
     2      0.268687035366E+09      0.397800000000E+34      0.777638629495E+13      0.127976534248E+14      0.848518426464E+06     -0.515058645298E+06     -0.341499432610E-01     -0.562546672891E-01
     2      0.269317755366E+09      0.397800000000E+34      0.830461995404E+13      0.124617081274E+14      0.826244312166E+06     -0.550079157182E+06     -0.364716755651E-01     -0.547777289730E-01
     2      0.269948475366E+09      0.397800000000E+34      0.881834746915E+13      0.121039746979E+14      0.802525728079E+06     -0.584137811416E+06     -0.387296277547E-01     -0.532050333861E-01
     2      0.270579195366E+09      0.397800000000E+34      0.931667072724E+13      0.117250786570E+14      0.777404151616E+06     -0.617175070188E+06     -0.409198532312E-01     -0.515393307720E-01
     2      0.271209915366E+09      0.397800000000E+34      0.979871855277E+13      0.113256825190E+14      0.750923512426E+06     -0.649133181807E+06     -0.430385238105E-01     -0.497835339100E-01
     2      0.271840635366E+09      0.397800000000E+34      0.102636482304E+14      0.109064846343E+14      0.723130115579E+06     -0.679956281634E+06     -0.450819364119E-01     -0.479407130242E-01
     2      0.272471355366E+09      0.397800000000E+34      0.107106469779E+14      0.104682179672E+14      0.694072560618E+06     -0.709590489708E+06     -0.470465195276E-01     -0.460140904189E-01
     2      0.273102075366E+09      0.397800000000E+34      0.111389333668E+14      0.100116488152E+14      0.663801656587E+06     -0.737984004900E+06     -0.489288394638E-01     -0.440070348479E-01
     2      0.273732795366E+09      0.397800000000E+34      0.115477586880E+14      0.953757546851E+13      0.632370333209E+06     -0.765087195448E+06     -0.507256063397E-01     -0.419230556275E-01
     2      0.274363515366E+09      0.397800000000E+34      0.119364082606E+14      0.904682681429E+13      0.599833548354E+06     -0.790852685683E+06     -0.524336798370E-01     -0.397657965046E-01
     2      0.274994235366E+09      0.397800000000E+34      0.123042026808E+14      0.854026088768E+13      0.566248191963E+06     -0.815235438830E+06     -0.540500746872E-01     -0.375390292896E-01
     2      0.275624955366E+09      0.397800000000E+34      0.126504990094E+14      0.801876337134E+13      0.531672986594E+06     -0.838192835707E+06     -0.555719658887E-01     -0.352466472655E-01
     2      0.276255675366E+09      0.397800000000E+34      0.129746918955E+14      0.748324604700E+13      0.496168384771E+06     -0.859684749214E+06     -0.569966936441E-01     -0.328926583846E-01
     2      0.276886395366E+09      0.397800000000E+34      0.132762146343E+14      0.693464520131E+13      0.459796463305E+06     -0.879673614455E+06     -0.583217680089E-01     -0.304811782647E-01
     2      0.277517115366E+09      0.397800000000E+34      0.135545401577E+14      0.637391998888E+13      0.422620814773E+06     -0.898124494388E+06     -0.595448732440E-01     -0.280164229973E-01
     2      0.278147835366E+09      0.397800000000E+34      0.138091819554E+14      0.580205075534E+13      0.384706436356E+06     -0.915005140884E+06     -0.606638718632E-01     -0.255027017798E-01
     2      0.278778555366E+09      0.397800000000E+34      0.140396949251E+14      0.522003732340E+13      0.346119616214E+06     -0.930286051085E+06     -0.616768083705E-01     -0.229444093848E-01
     2      0.279409275366E+09      0.397800000000E+34      0.142456761501E+14      0.462889724480E+13      0.306927817607E+06     -0.943940518961E+06     -0.625819126788E-01     -0.203460184797E-01
     2      0.280039995366E+09      0.397800000000E+34      0.144267656039E+14      0.402966402137E+13      0.267199560963E+06     -0.955944681990E+06     -0.633776032049E-01     -0.177120718102E-01
     2      0.280670715366E+09      0.397800000000E+34      0.145826467788E+14      0.342338529814E+13      0.227004304092E+06     -0.966277562854E+06     -0.640624896353E-01     -0.150471742605E-01
     2      0.281301435366E+09      0.397800000000E+34      0.147130472392E+14      0.281112103177E+13      0.186412320767E+06     -0.974921106104E+06     -0.646353753580E-01     -0.123559848053E-01
     2      0.281932155366E+09      0.397800000000E+34      0.148177390975E+14      0.219394163745E+13      0.145494577875E+06     -0.981860209712E+06     -0.650952595559E-01     -0.964320836642E-02
     2      0.282562875366E+09      0.397800000000E+34      0.148965394123E+14      0.157292611753E+13      0.104322611355E+06     -0.987082751463E+06     -0.654413389574E-01     -0.691358758920E-02
     2      0.283193595367E+09      0.397800000000E+34      0.149493105079E+14      0.949160175124E+12      0.629684011381E+05     -0.990579610137E+06     -0.656730092432E-01     -0.417189455235E-02
     2      0.283824315367E+09      0.397800000000E+34      0.149759602147E+14      0.323734316059E+12      0.215042453156E+05     -0.992344681450E+06     -0.657898661037E-01     -0.142292242627E-02
     2      0.284455035367E+09      0.397800000000E+34      0.149764420300E+14     -0.302258057641E+12     -0.199973662538E+05     -0.992374888711E+06     -0.657917059482E-01      0.132852290593E-02
     2      0.285085755367E+09      0.397800000000E+34      0.149507551991E+14     -0.927722559276E+12     -0.614638786733E+05     -0.990670188200E+06     -0.656785262629E-01      0.407763124994E-02
     2      0.285716475367E+09      0.397800000000E+34      0.148989447163E+14     -0.155156573072E+13     -0.102822798851E+06     -0.987233569230E+06     -0.654505256165E-01      0.681959650963E-02
     2      0.286347195367E+09      0.397800000000E+34      0.148211012460E+14     -0.217269695406E+13     -0.144001822238E+06     -0.982071048917E+06     -0.651081033160E-01      0.954962508959E-02
     2      0.286977915367E+09      0.397800000000E+34      0.147173609639E+14     -0.279003035824E+13     -0.184928959233E+06     -0.975191661652E+06     -0.646518587096E-01      0.122629442762E-01
     2      0.287608635367E+09      0.397800000000E+34      0.145879053185E+14     -0.340248671742E+13     -0.225532661045E+06     -0.966607443296E+06     -0.640825901409E-01      0.149548105824E-01
     2      0.288239355367E+09      0.397800000000E+34      0.144329607138E+14     -0.400899533767E+13     -0.265741944783E+06     -0.956333410131E+06     -0.634012935554E-01      0.176205180417E-01
     2      0.288870075367E+09      0.397800000000E+34      0.142527981133E+14     -0.460849592883E+13     -0.305486517552E+06     -0.944387532594E+06     -0.626091607600E-01      0.202554064371E-01
     2      0.289500795367E+09      0.397800000000E+34      0.140477325656E+14     -0.519994045810E+13     -0.344696899354E+06     -0.930790703855E+06     -0.617075773413E-01      0.228548694501E-01
     2      0.290131515367E+09      0.397800000000E+34      0.138181226537E+14     -0.578229498218E+13     -0.383304544559E+06     -0.915566703270E+06     -0.606981202442E-01      0.254143627154E-01
     2      0.290762235367E+09      0.397800000000E+34      0.135643698675E+14     -0.635454145485E+13     -0.421241961752E+06     -0.898742154802E+06     -0.595825550156E-01      0.279294117686E-01
     2      0.291392955367E+09      0.397800000000E+34      0.132869179020E+14     -0.691567950666E+13     -0.458442831725E+06     -0.880346480455E+06     -0.583628327189E-01      0.303956198705E-01
     2      0.292023675367E+09      0.397800000000E+34      0.129862518808E+14     -0.746472819380E+13     -0.494842123438E+06     -0.860411848822E+06     -0.570410865227E-01      0.328086756971E-01
     2      0.292654395367E+09      0.397800000000E+34      0.126628975081E+14     -0.800072771288E+13     -0.530376207707E+06     -0.838973118828E+06     -0.556196279717E-01      0.351643608790E-01
     2      0.293285115367E+09      0.397800000000E+34      0.123174201490E+14     -0.852274107888E+13     -0.564982968460E+06     -0.816067778764E+06     -0.541009429452E-01      0.374585573798E-01
     2      0.293915835367E+09      0.397800000000E+34      0.119504238411E+14     -0.902985576303E+13     -0.598601911334E+06     -0.791735880729E+06     -0.524876873103E-01      0.396872546982E-01
     2      0.294546555367E+09      0.397800000000E+34      0.115625502379E+14     -0.952118528810E+13     -0.631174269444E+06     -0.766019970583E+06     -0.507826822776E-01      0.418465568824E-01
     2      0.295177275367E+09      0.397800000000E+34      0.111544774866E+14     -0.999587077797E+13     -0.662643106126E+06     -0.738965013537E+06     -0.489889094675E-01      0.439326893447E-01
     2      0.295807995367E+09      0.397800000000E+34      0.107269190427E+14     -0.104530824590E+14     -0.692953414484E+06     -0.710618315518E+06     -0.471095056958E-01      0.459420054632E-01
     2      0.296438715367E+09      0.397800000000E+34      0.102806224217E+14     -0.108920211106E+14     -0.722052213558E+06     -0.681029440433E+06     -0.451477574872E-01      0.478709929601E-01
     2      0.297069435367E+09      0.397800000000E+34      0.981636789246E+13     -0.113119194621E+14     -0.749888640950E+06     -0.650250123489E+06     -0.431070953274E-01      0.497162800449E-01
     2      0.297700155367E+09      0.397800000000E+34      0.933496711254E+13     -0.117120435340E+14     -0.776414041747E+06     -0.618334180709E+06     -0.409910876623E-01      0.514746413123E-01
     2      0.298330875367E+09      0.397800000000E+34      0.883726170879E+13     -0.120916939209E+14     -0.801582053576E+06     -0.585337414814E+06     -0.388034346558E-01      0.531430033832E-01
     2      0.298961595367E+09      0.397800000000E+34      0.832412180576E+13     -0.124502070141E+14     -0.825348687656E+06     -0.551317517632E+06     -0.365479617181E-01      0.547184502801E-01
     2      0.299592315367E+09      0.397800000000E+34      0.779644450415E+13     -0.127869561610E+14     -0.847672405696E+06     -0.516333969193E+06     -0.342286128126E-01      0.561982285277E-01
     2      0.300223035367E+09      0.397800000000E+34      0.725515231208E+13     -0.131013527609E+14     -0.868514192500E+06     -0.480447933706E+06     -0.318494435573E-01      0.575797519675E-01
     2      0.300853755367E+09      0.397800000000E+34      0.670119153204E+13     -0.133928472935E+14     -0.887837624170E+06     -0.443722152589E+06     -0.294146141294E-01      0.588606062814E-01
     2      0.301484475367E+09      0.397800000000E+34      0.613553060618E+13     -0.136609302788E+14     -0.905608931763E+06     -0.406220834735E+06     -0.269283819872E-01      0.600385532133E-01
     2      0.302115195367E+09      0.397800000000E+34      0.555915842289E+13     -0.139051331682E+14     -0.921797060312E+06     -0.368009544220E+06     -0.243950944218E-01      0.611115344829E-01
     2      0.302745915367E+09      0.397800000000E+34      0.497308258776E+13     -0.141250291625E+14     -0.936373723096E+06     -0.329155085637E+06     -0.218191809513E-01      0.620776753844E-01
     2      0.303376635367E+09      0.397800000000E+34      0.437832766170E+13     -0.143202339578E+14     -0.949313451064E+06     -0.289725387259E+06     -0.192051455712E-01      0.629352880637E-01
     2      0.304007355367E+09      0.397800000000E+34      0.377593336948E+13     -0.144904064173E+14     -0.960593637337E+06     -0.249789382245E+06     -0.165575588746E-01      0.636828744689E-01
     2      0.304638075367E+09      0.397800000000E+34      0.316695278185E+13     -0.146352491664E+14     -0.970194576693E+06     -0.209416888081E+06     -0.138810500555E-01      0.643191289680E-01
     2      0.305268795368E+09      0.397800000000E+34      0.255245047423E+13     -0.147545091128E+14     -0.978099499981E+06     -0.168678484483E+06     -0.111802988098E-01      0.648429406295E-01
     2      0.305899515368E+09      0.397800000000E+34      0.193350066541E+13     -0.148479778881E+14     -0.984294603399E+06     -0.127645389963E+06     -0.846002714808E-02      0.652533951633E-01
     2      0.306530235368E+09      0.397800000000E+34      0.131118533937E+13     -0.149154922114E+14     -0.988769072581E+06     -0.863893372886E+05     -0.572499113431E-02      0.655497765156E-01
     2      0.307160955368E+09      0.397800000000E+34      0.686592353541E+12     -0.149569341743E+14     -0.991515101456E+06     -0.449824480306E+05     -0.297997256493E-02      0.657315681179E-01
     2      0.307791675368E+09      0.397800000000E+34      0.608135368835E+11     -0.149722314464E+14     -0.992527905840E+06     -0.349710644831E+04     -0.229770603388E-03      0.657984537866E-01
     2      0.308422395368E+09      0.397800000000E+34     -0.565057218995E+12     -0.149613574009E+14     -0.991805731750E+06      0.379941670909E+05      0.252080661575E-02      0.657503182711E-01
     2      0.309053115368E+09      0.397800000000E+34     -0.118992587227E+13     -0.149243311607E+14     -0.989349858407E+06      0.794188429243E+05      0.526695039808E-02      0.655872474505E-01
     2      0.309683835368E+09      0.397800000000E+34     -0.181270014355E+13     -0.148612175645E+14     -0.985164595937E+06      0.120704508920E+06      0.800385990141E-02      0.653095281787E-01
     2      0.310314555368E+09      0.397800000000E+34     -0.243229142543E+13     -0.147721270522E+14     -0.979257277774E+06      0.161778997094E+06      0.107267505337E-01      0.649176477763E-01
     2      0.310945275368E+09      0.397800000000E+34     -0.304761668554E+13     -0.146572154713E+14     -0.971638247769E+06      0.202570509797E+06      0.134308623225E-01      0.644122931729E-01
     2      0.311575995368E+09      0.397800000000E+34     -0.365760035986E+13     -0.145166838041E+14     -0.962320842032E+06      0.243007745249E+06      0.161114682405E-01      0.637943496993E-01
     2      0.312206715368E+09      0.397800000000E+34     -0.426117623288E+13     -0.143507778149E+14     -0.951321365549E+06      0.283020022202E+06      0.187638824734E-01      0.630648995324E-01
     2      0.312837435368E+09      0.397800000000E+34     -0.485728930137E+13     -0.141597876204E+14     -0.938659063596E+06      0.322537403517E+06      0.213834686154E-01      0.622252197956E-01
     2      0.313468155368E+09      0.397800000000E+34     -0.544489761858E+13     -0.139440471812E+14     -0.924356088017E+06      0.361490818429E+06      0.239656477773E-01      0.612767803186E-01
     2      0.314098875368E+09      0.397800000000E+34     -0.602297411544E+13     -0.137039337171E+14     -0.908437458419E+06      0.399812183296E+06      0.265059065938E-01      0.602212410586E-01
     2      0.314729595368E+09      0.397800000000E+34     -0.659050839582E+13     -0.134398670476E+14     -0.890931018348E+06      0.437434520620E+06      0.289998051159E-01      0.590604491904E-01
